Folder: ts_t

File: combined_flexural.csv
Time,Displacement,Force,File_ID,Material_ID
0,0.0,0.0244878,Hemp 0deg_1,Hemp 0deg
1,0.0819537,0.032094,Hemp 0deg_1,Hemp 0deg
2,0.165268,0.039922,Hemp 0deg_1,Hemp 0deg
3,0.248646,0.047798,Hemp 0deg_1,Hemp 0deg
4,0.331952,0.05559,Hemp 0deg_1,Hemp 0deg
5,0.415278,0.06346,Hemp 0deg_1,Hemp 0deg
6,0.49863,0.07137,Hemp 0deg_1,Hemp 0deg
7,0.581954,0.07921,Hemp 0deg_1,Hemp 0deg
8,0.665282,0.086946,Hemp 0deg_1,Hemp 0deg
9,0.748638,0.094432,Hemp 0deg_1,Hemp 0deg
10,0.831962,0.102088,Hemp 0deg_1,Hemp 0deg
11,0.915294,0.109538,Hemp 0deg_1,Hemp 0deg
12,0.998642,0.116822,Hemp 0deg_1,Hemp 0deg
13,1.08197,0.123904,Hemp 0deg_1,Hemp 0deg
14,1.16527,0.130704,Hemp 0deg_1,Hemp 0deg
15,1.24865,0.137528,Hemp 0deg_1,Hemp 0deg
16,1.33195,0.14422,Hemp 0deg_1,Hemp 0deg
17,1.41528,0.150698,Hemp 0deg_1,Hemp 0deg
18,1.49865,0.15712,Hemp 0deg_1,Hemp 0deg
19,1.58197,0.163528,Hemp 0deg_1,Hemp 0deg
20,1.66528,0.16971,Hemp 0deg_1,Hemp 0deg
21,1.74864,0.175746,Hemp 0deg_1,Hemp 0deg
22,1.83198,0.181576,Hemp 0deg_1,Hemp 0deg
23,1.91527,0.18731,Hemp 0deg_1,Hemp 0deg
24,1.99865,0.192868,Hemp 0deg_1,Hemp 0deg
25,2.08196,0.198356,Hemp 0deg_1,Hemp 0deg
26,2.16528,0.2036,Hemp 0deg_1,Hemp 0deg
27,2.24865,0.208968,Hemp 0deg_1,Hemp 0deg
28,2.33196,0.214008,Hemp 0deg_1,Hemp 0deg
29,2.41528,0.218964,Hemp 0deg_1,Hemp 0deg
30,2.49864,0.223924,Hemp 0deg_1,Hemp 0deg
31,2.58196,0.228632,Hemp 0deg_1,Hemp 0deg
32,2.66528,0.233368,Hemp 0deg_1,Hemp 0deg
33,2.74865,0.23784,Hemp 0deg_1,Hemp 0deg
34,2.83196,0.24236,Hemp 0deg_1,Hemp 0deg
35,2.91528,0.246664,Hemp 0deg_1,Hemp 0deg
36,2.99864,0.250716,Hemp 0deg_1,Hemp 0deg
37,3.08196,0.254614,Hemp 0deg_1,Hemp 0deg
38,3.16528,0.258524,Hemp 0deg_1,Hemp 0deg
39,3.24865,0.262458,Hemp 0deg_1,Hemp 0deg
40,3.33195,0.266024,Hemp 0deg_1,Hemp 0deg
41,3.41529,0.269786,Hemp 0deg_1,Hemp 0deg
42,3.49864,0.27344,Hemp 0deg_1,Hemp 0deg
43,3.58197,0.27654,Hemp 0deg_1,Hemp 0deg
44,3.66528,0.279948,Hemp 0deg_1,Hemp 0deg
45,3.74865,0.283666,Hemp 0deg_1,Hemp 0deg
46,3.83195,0.287266,Hemp 0deg_1,Hemp 0deg
47,3.91528,0.290526,Hemp 0deg_1,Hemp 0deg
48,3.99865,0.293734,Hemp 0deg_1,Hemp 0deg
49,4.08197,0.296872,Hemp 0deg_1,Hemp 0deg
50,4.16528,0.299832,Hemp 0deg_1,Hemp 0deg
51,4.24864,0.302726,Hemp 0deg_1,Hemp 0deg
52,4.33196,0.30548,Hemp 0deg_1,Hemp 0deg
53,4.41529,0.30817,Hemp 0deg_1,Hemp 0deg
54,4.49865,0.310758,Hemp 0deg_1,Hemp 0deg
55,4.58196,0.313536,Hemp 0deg_1,Hemp 0deg
56,4.66529,0.31634,Hemp 0deg_1,Hemp 0deg
57,4.74864,0.31894,Hemp 0deg_1,Hemp 0deg
58,4.83197,0.321324,Hemp 0deg_1,Hemp 0deg
59,4.91526,0.323282,Hemp 0deg_1,Hemp 0deg
60,4.99864,0.325474,Hemp 0deg_1,Hemp 0deg
61,5.08197,0.32692,Hemp 0deg_1,Hemp 0deg
62,5.16526,0.328406,Hemp 0deg_1,Hemp 0deg
63,5.24865,0.33004,Hemp 0deg_1,Hemp 0deg
64,5.33198,0.33192,Hemp 0deg_1,Hemp 0deg
65,5.41528,0.33395,Hemp 0deg_1,Hemp 0deg
66,5.49864,0.335702,Hemp 0deg_1,Hemp 0deg
67,5.58196,0.33624,Hemp 0deg_1,Hemp 0deg
68,5.66529,0.303516,Hemp 0deg_1,Hemp 0deg
69,5.74865,0.141322,Hemp 0deg_1,Hemp 0deg
70,5.83197,0.135588,Hemp 0deg_1,Hemp 0deg
71,5.91527,0.133312,Hemp 0deg_1,Hemp 0deg
72,5.96014,0.13165,Hemp 0deg_1,Hemp 0deg
0,0.0,0.024002,Hemp 45deg_1,Hemp 45deg
1,0.0820107,0.030724,Hemp 45deg_1,Hemp 45deg
2,0.165335,0.037582,Hemp 45deg_1,Hemp 45deg
3,0.248677,0.044538,Hemp 45deg_1,Hemp 45deg
4,0.332023,0.051438,Hemp 45deg_1,Hemp 45deg
5,0.415345,0.058314,Hemp 45deg_1,Hemp 45deg
6,0.498681,0.065376,Hemp 45deg_1,Hemp 45deg
7,0.582029,0.072446,Hemp 45deg_1,Hemp 45deg
8,0.665319,0.079432,Hemp 45deg_1,Hemp 45deg
9,0.748659,0.086344,Hemp 45deg_1,Hemp 45deg
10,0.832033,0.093142,Hemp 45deg_1,Hemp 45deg
11,0.915325,0.0998,Hemp 45deg_1,Hemp 45deg
12,0.998657,0.106672,Hemp 45deg_1,Hemp 45deg
13,1.08203,0.113274,Hemp 45deg_1,Hemp 45deg
14,1.16535,0.11974,Hemp 45deg_1,Hemp 45deg
15,1.24866,0.126068,Hemp 45deg_1,Hemp 45deg
16,1.33203,0.132242,Hemp 45deg_1,Hemp 45deg
17,1.41535,0.138274,Hemp 45deg_1,Hemp 45deg
18,1.49866,0.144326,Hemp 45deg_1,Hemp 45deg
19,1.58203,0.150294,Hemp 45deg_1,Hemp 45deg
20,1.66534,0.156046,Hemp 45deg_1,Hemp 45deg
21,1.74866,0.161812,Hemp 45deg_1,Hemp 45deg
22,1.83202,0.167394,Hemp 45deg_1,Hemp 45deg
23,1.91533,0.1729,Hemp 45deg_1,Hemp 45deg
24,1.99865,0.178296,Hemp 45deg_1,Hemp 45deg
25,2.08203,0.183538,Hemp 45deg_1,Hemp 45deg
26,2.16534,0.188578,Hemp 45deg_1,Hemp 45deg
27,2.24866,0.193496,Hemp 45deg_1,Hemp 45deg
28,2.33203,0.198472,Hemp 45deg_1,Hemp 45deg
29,2.41534,0.2032,Hemp 45deg_1,Hemp 45deg
30,2.49865,0.207846,Hemp 45deg_1,Hemp 45deg
31,2.58202,0.212354,Hemp 45deg_1,Hemp 45deg
32,2.66534,0.21681,Hemp 45deg_1,Hemp 45deg
33,2.74868,0.220682,Hemp 45deg_1,Hemp 45deg
34,2.83203,0.224366,Hemp 45deg_1,Hemp 45deg
35,2.91532,0.22782,Hemp 45deg_1,Hemp 45deg
36,2.99866,0.231854,Hemp 45deg_1,Hemp 45deg
37,3.08202,0.235808,Hemp 45deg_1,Hemp 45deg
38,3.16534,0.23968,Hemp 45deg_1,Hemp 45deg
39,3.24866,0.24331,Hemp 45deg_1,Hemp 45deg
40,3.33204,0.246044,Hemp 45deg_1,Hemp 45deg
41,3.41533,0.249268,Hemp 45deg_1,Hemp 45deg
42,3.49866,0.25257,Hemp 45deg_1,Hemp 45deg
43,3.58202,0.255454,Hemp 45deg_1,Hemp 45deg
44,3.66534,0.258566,Hemp 45deg_1,Hemp 45deg
45,3.74866,0.260784,Hemp 45deg_1,Hemp 45deg
46,3.83202,0.26369,Hemp 45deg_1,Hemp 45deg
47,3.91534,0.266626,Hemp 45deg_1,Hemp 45deg
48,3.99867,0.269614,Hemp 45deg_1,Hemp 45deg
49,4.08204,0.272352,Hemp 45deg_1,Hemp 45deg
50,4.16534,0.274838,Hemp 45deg_1,Hemp 45deg
51,4.24866,0.277634,Hemp 45deg_1,Hemp 45deg
52,4.33203,0.280234,Hemp 45deg_1,Hemp 45deg
53,4.41533,0.282476,Hemp 45deg_1,Hemp 45deg
54,4.49865,0.28482,Hemp 45deg_1,Hemp 45deg
55,4.58204,0.28736,Hemp 45deg_1,Hemp 45deg
56,4.66534,0.289938,Hemp 45deg_1,Hemp 45deg
57,4.74867,0.292282,Hemp 45deg_1,Hemp 45deg
58,4.83201,0.294802,Hemp 45deg_1,Hemp 45deg
59,4.91536,0.296796,Hemp 45deg_1,Hemp 45deg
60,4.99866,0.29924,Hemp 45deg_1,Hemp 45deg
61,5.08202,0.301728,Hemp 45deg_1,Hemp 45deg
62,5.16534,0.303928,Hemp 45deg_1,Hemp 45deg
63,5.24867,0.305934,Hemp 45deg_1,Hemp 45deg
64,5.33201,0.30758,Hemp 45deg_1,Hemp 45deg
65,5.41533,0.308968,Hemp 45deg_1,Hemp 45deg
66,5.49867,0.310624,Hemp 45deg_1,Hemp 45deg
67,5.58202,0.312582,Hemp 45deg_1,Hemp 45deg
68,5.66534,0.31437,Hemp 45deg_1,Hemp 45deg
69,5.74865,0.315962,Hemp 45deg_1,Hemp 45deg
70,5.83203,0.31754,Hemp 45deg_1,Hemp 45deg
71,5.91533,0.319194,Hemp 45deg_1,Hemp 45deg
72,5.99866,0.320888,Hemp 45deg_1,Hemp 45deg
73,6.08201,0.322348,Hemp 45deg_1,Hemp 45deg
74,6.16533,0.323622,Hemp 45deg_1,Hemp 45deg
75,6.24866,0.325136,Hemp 45deg_1,Hemp 45deg
76,6.33203,0.32677,Hemp 45deg_1,Hemp 45deg
77,6.41533,0.328076,Hemp 45deg_1,Hemp 45deg
78,6.49866,0.329396,Hemp 45deg_1,Hemp 45deg
79,6.58203,0.330642,Hemp 45deg_1,Hemp 45deg
80,6.66533,0.331788,Hemp 45deg_1,Hemp 45deg
81,6.74866,0.33301,Hemp 45deg_1,Hemp 45deg
82,6.83204,0.334096,Hemp 45deg_1,Hemp 45deg
83,6.91533,0.335132,Hemp 45deg_1,Hemp 45deg
84,6.99865,0.336268,Hemp 45deg_1,Hemp 45deg
85,7.08202,0.337262,Hemp 45deg_1,Hemp 45deg
86,7.16533,0.337936,Hemp 45deg_1,Hemp 45deg
87,7.24867,0.338958,Hemp 45deg_1,Hemp 45deg
88,7.33203,0.339962,Hemp 45deg_1,Hemp 45deg
89,7.41534,0.340812,Hemp 45deg_1,Hemp 45deg
90,7.49867,0.341672,Hemp 45deg_1,Hemp 45deg
91,7.58204,0.342498,Hemp 45deg_1,Hemp 45deg
92,7.66534,0.343156,Hemp 45deg_1,Hemp 45deg
93,7.74868,0.34366,Hemp 45deg_1,Hemp 45deg
94,7.83204,0.343816,Hemp 45deg_1,Hemp 45deg
95,7.91534,0.343516,Hemp 45deg_1,Hemp 45deg
96,7.99867,0.341962,Hemp 45deg_1,Hemp 45deg
97,8.08203,0.335298,Hemp 45deg_1,Hemp 45deg
98,8.16536,0.229094,Hemp 45deg_1,Hemp 45deg
99,8.24866,0.011288,Hemp 45deg_1,Hemp 45deg
100,8.33203,0.011854,Hemp 45deg_1,Hemp 45deg
101,8.39112,0.0120238,Hemp 45deg_1,Hemp 45deg
0,0.0,0.0235837,Hemp 45deg_2,Hemp 45deg
1,0.0819602,0.030088,Hemp 45deg_2,Hemp 45deg
2,0.165318,0.036732,Hemp 45deg_2,Hemp 45deg
3,0.248646,0.043504,Hemp 45deg_2,Hemp 45deg
4,0.331978,0.05018,Hemp 45deg_2,Hemp 45deg
5,0.415338,0.056888,Hemp 45deg_2,Hemp 45deg
6,0.498662,0.063898,Hemp 45deg_2,Hemp 45deg
7,0.58198,0.070776,Hemp 45deg_2,Hemp 45deg
8,0.66534,0.077648,Hemp 45deg_2,Hemp 45deg
9,0.74865,0.084558,Hemp 45deg_2,Hemp 45deg
10,0.83196,0.091248,Hemp 45deg_2,Hemp 45deg
11,0.915338,0.097922,Hemp 45deg_2,Hemp 45deg
12,0.998636,0.104676,Hemp 45deg_2,Hemp 45deg
13,1.08197,0.111278,Hemp 45deg_2,Hemp 45deg
14,1.16534,0.117834,Hemp 45deg_2,Hemp 45deg
15,1.24866,0.12419,Hemp 45deg_2,Hemp 45deg
16,1.33197,0.130486,Hemp 45deg_2,Hemp 45deg
17,1.41534,0.136604,Hemp 45deg_2,Hemp 45deg
18,1.49866,0.142742,Hemp 45deg_2,Hemp 45deg
19,1.58197,0.148604,Hemp 45deg_2,Hemp 45deg
20,1.66534,0.154644,Hemp 45deg_2,Hemp 45deg
21,1.74866,0.16052,Hemp 45deg_2,Hemp 45deg
22,1.83198,0.166226,Hemp 45deg_2,Hemp 45deg
23,1.91534,0.171816,Hemp 45deg_2,Hemp 45deg
24,1.99865,0.177424,Hemp 45deg_2,Hemp 45deg
25,2.08196,0.182852,Hemp 45deg_2,Hemp 45deg
26,2.16534,0.188232,Hemp 45deg_2,Hemp 45deg
27,2.24865,0.193394,Hemp 45deg_2,Hemp 45deg
28,2.33197,0.198472,Hemp 45deg_2,Hemp 45deg
29,2.41533,0.203558,Hemp 45deg_2,Hemp 45deg
30,2.49866,0.208446,Hemp 45deg_2,Hemp 45deg
31,2.58197,0.21312,Hemp 45deg_2,Hemp 45deg
32,2.66532,0.217754,Hemp 45deg_2,Hemp 45deg
33,2.74866,0.222068,Hemp 45deg_2,Hemp 45deg
34,2.83198,0.226488,Hemp 45deg_2,Hemp 45deg
35,2.91533,0.230896,Hemp 45deg_2,Hemp 45deg
36,2.99864,0.235058,Hemp 45deg_2,Hemp 45deg
37,3.08199,0.23905,Hemp 45deg_2,Hemp 45deg
38,3.16534,0.243196,Hemp 45deg_2,Hemp 45deg
39,3.24866,0.247164,Hemp 45deg_2,Hemp 45deg
40,3.33197,0.25069,Hemp 45deg_2,Hemp 45deg
41,3.41533,0.254306,Hemp 45deg_2,Hemp 45deg
42,3.49866,0.257948,Hemp 45deg_2,Hemp 45deg
43,3.58197,0.26145,Hemp 45deg_2,Hemp 45deg
44,3.66533,0.2648,Hemp 45deg_2,Hemp 45deg
45,3.74866,0.268078,Hemp 45deg_2,Hemp 45deg
46,3.83196,0.271418,Hemp 45deg_2,Hemp 45deg
47,3.91535,0.274856,Hemp 45deg_2,Hemp 45deg
48,3.99866,0.278074,Hemp 45deg_2,Hemp 45deg
49,4.08196,0.281058,Hemp 45deg_2,Hemp 45deg
50,4.16536,0.284042,Hemp 45deg_2,Hemp 45deg
51,4.24865,0.286928,Hemp 45deg_2,Hemp 45deg
52,4.33196,0.289562,Hemp 45deg_2,Hemp 45deg
53,4.41535,0.291904,Hemp 45deg_2,Hemp 45deg
54,4.49865,0.294626,Hemp 45deg_2,Hemp 45deg
55,4.58196,0.297196,Hemp 45deg_2,Hemp 45deg
56,4.66534,0.299824,Hemp 45deg_2,Hemp 45deg
57,4.74865,0.302212,Hemp 45deg_2,Hemp 45deg
58,4.83197,0.304848,Hemp 45deg_2,Hemp 45deg
59,4.91534,0.307464,Hemp 45deg_2,Hemp 45deg
60,4.99866,0.3101,Hemp 45deg_2,Hemp 45deg
61,5.08198,0.312544,Hemp 45deg_2,Hemp 45deg
62,5.16535,0.31504,Hemp 45deg_2,Hemp 45deg
63,5.24864,0.317306,Hemp 45deg_2,Hemp 45deg
64,5.33198,0.319514,Hemp 45deg_2,Hemp 45deg
65,5.41533,0.321634,Hemp 45deg_2,Hemp 45deg
66,5.49865,0.32347,Hemp 45deg_2,Hemp 45deg
67,5.58197,0.325512,Hemp 45deg_2,Hemp 45deg
68,5.66535,0.327204,Hemp 45deg_2,Hemp 45deg
69,5.74866,0.328638,Hemp 45deg_2,Hemp 45deg
70,5.83196,0.330018,Hemp 45deg_2,Hemp 45deg
71,5.91535,0.331784,Hemp 45deg_2,Hemp 45deg
72,5.99866,0.333304,Hemp 45deg_2,Hemp 45deg
73,6.08198,0.334868,Hemp 45deg_2,Hemp 45deg
74,6.16533,0.336568,Hemp 45deg_2,Hemp 45deg
75,6.24865,0.338222,Hemp 45deg_2,Hemp 45deg
76,6.33197,0.339826,Hemp 45deg_2,Hemp 45deg
77,6.41533,0.341316,Hemp 45deg_2,Hemp 45deg
78,6.49865,0.342762,Hemp 45deg_2,Hemp 45deg
79,6.58196,0.344292,Hemp 45deg_2,Hemp 45deg
80,6.66534,0.345992,Hemp 45deg_2,Hemp 45deg
81,6.74866,0.347478,Hemp 45deg_2,Hemp 45deg
82,6.83197,0.34877,Hemp 45deg_2,Hemp 45deg
83,6.91535,0.34936,Hemp 45deg_2,Hemp 45deg
84,6.99866,0.350638,Hemp 45deg_2,Hemp 45deg
85,7.08196,0.351912,Hemp 45deg_2,Hemp 45deg
86,7.16533,0.353298,Hemp 45deg_2,Hemp 45deg
87,7.24865,0.354524,Hemp 45deg_2,Hemp 45deg
88,7.33198,0.355686,Hemp 45deg_2,Hemp 45deg
89,7.41534,0.356766,Hemp 45deg_2,Hemp 45deg
90,7.49865,0.357952,Hemp 45deg_2,Hemp 45deg
91,7.58198,0.359006,Hemp 45deg_2,Hemp 45deg
92,7.66533,0.359912,Hemp 45deg_2,Hemp 45deg
93,7.74866,0.36062,Hemp 45deg_2,Hemp 45deg
94,7.83198,0.361456,Hemp 45deg_2,Hemp 45deg
95,7.91535,0.361842,Hemp 45deg_2,Hemp 45deg
96,7.99865,0.361872,Hemp 45deg_2,Hemp 45deg
97,8.08199,0.361444,Hemp 45deg_2,Hemp 45deg
98,8.16533,0.360354,Hemp 45deg_2,Hemp 45deg
99,8.24866,0.358724,Hemp 45deg_2,Hemp 45deg
100,8.33199,0.09729,Hemp 45deg_2,Hemp 45deg
101,8.41533,0.001942,Hemp 45deg_2,Hemp 45deg
102,8.49865,0.002202,Hemp 45deg_2,Hemp 45deg
103,8.58199,0.002306,Hemp 45deg_2,Hemp 45deg
104,8.64533,0.00243077,Hemp 45deg_2,Hemp 45deg
0,0.0,0.0284286,Basalt Hemp 0deg_1,Basalt Hemp 0deg
1,0.0819595,0.043348,Basalt Hemp 0deg_1,Basalt Hemp 0deg
2,0.165317,0.059142,Basalt Hemp 0deg_1,Basalt Hemp 0deg
3,0.248655,0.075324,Basalt Hemp 0deg_1,Basalt Hemp 0deg
4,0.331961,0.091698,Basalt Hemp 0deg_1,Basalt Hemp 0deg
5,0.415295,0.108284,Basalt Hemp 0deg_1,Basalt Hemp 0deg
6,0.498651,0.124658,Basalt Hemp 0deg_1,Basalt Hemp 0deg
7,0.581977,0.140842,Basalt Hemp 0deg_1,Basalt Hemp 0deg
8,0.665313,0.157076,Basalt Hemp 0deg_1,Basalt Hemp 0deg
9,0.748655,0.173434,Basalt Hemp 0deg_1,Basalt Hemp 0deg
10,0.831993,0.189638,Basalt Hemp 0deg_1,Basalt Hemp 0deg
11,0.915313,0.20583,Basalt Hemp 0deg_1,Basalt Hemp 0deg
12,0.998657,0.221694,Basalt Hemp 0deg_1,Basalt Hemp 0deg
13,1.08196,0.237448,Basalt Hemp 0deg_1,Basalt Hemp 0deg
14,1.16532,0.253126,Basalt Hemp 0deg_1,Basalt Hemp 0deg
15,1.24865,0.268564,Basalt Hemp 0deg_1,Basalt Hemp 0deg
16,1.33197,0.284254,Basalt Hemp 0deg_1,Basalt Hemp 0deg
17,1.4153,0.299704,Basalt Hemp 0deg_1,Basalt Hemp 0deg
18,1.49867,0.314918,Basalt Hemp 0deg_1,Basalt Hemp 0deg
19,1.58198,0.329652,Basalt Hemp 0deg_1,Basalt Hemp 0deg
20,1.66532,0.344348,Basalt Hemp 0deg_1,Basalt Hemp 0deg
21,1.74867,0.358712,Basalt Hemp 0deg_1,Basalt Hemp 0deg
22,1.83199,0.372984,Basalt Hemp 0deg_1,Basalt Hemp 0deg
23,1.91531,0.387308,Basalt Hemp 0deg_1,Basalt Hemp 0deg
24,1.99866,0.401538,Basalt Hemp 0deg_1,Basalt Hemp 0deg
25,2.08197,0.415508,Basalt Hemp 0deg_1,Basalt Hemp 0deg
26,2.16531,0.429338,Basalt Hemp 0deg_1,Basalt Hemp 0deg
27,2.24866,0.442698,Basalt Hemp 0deg_1,Basalt Hemp 0deg
28,2.33197,0.456016,Basalt Hemp 0deg_1,Basalt Hemp 0deg
29,2.4153,0.469118,Basalt Hemp 0deg_1,Basalt Hemp 0deg
30,2.49867,0.48221,Basalt Hemp 0deg_1,Basalt Hemp 0deg
31,2.58197,0.495608,Basalt Hemp 0deg_1,Basalt Hemp 0deg
32,2.6653,0.508854,Basalt Hemp 0deg_1,Basalt Hemp 0deg
33,2.74867,0.521644,Basalt Hemp 0deg_1,Basalt Hemp 0deg
34,2.83198,0.534306,Basalt Hemp 0deg_1,Basalt Hemp 0deg
35,2.9153,0.546828,Basalt Hemp 0deg_1,Basalt Hemp 0deg
36,2.99866,0.55897,Basalt Hemp 0deg_1,Basalt Hemp 0deg
37,3.08198,0.57101,Basalt Hemp 0deg_1,Basalt Hemp 0deg
38,3.16531,0.583124,Basalt Hemp 0deg_1,Basalt Hemp 0deg
39,3.24865,0.595218,Basalt Hemp 0deg_1,Basalt Hemp 0deg
40,3.33198,0.607218,Basalt Hemp 0deg_1,Basalt Hemp 0deg
41,3.4153,0.619188,Basalt Hemp 0deg_1,Basalt Hemp 0deg
42,3.49866,0.631024,Basalt Hemp 0deg_1,Basalt Hemp 0deg
43,3.58198,0.642596,Basalt Hemp 0deg_1,Basalt Hemp 0deg
44,3.66532,0.654128,Basalt Hemp 0deg_1,Basalt Hemp 0deg
45,3.74867,0.665556,Basalt Hemp 0deg_1,Basalt Hemp 0deg
46,3.83198,0.676676,Basalt Hemp 0deg_1,Basalt Hemp 0deg
47,3.91531,0.687926,Basalt Hemp 0deg_1,Basalt Hemp 0deg
48,3.99865,0.699064,Basalt Hemp 0deg_1,Basalt Hemp 0deg
49,4.08197,0.710126,Basalt Hemp 0deg_1,Basalt Hemp 0deg
50,4.1653,0.721092,Basalt Hemp 0deg_1,Basalt Hemp 0deg
51,4.24866,0.732108,Basalt Hemp 0deg_1,Basalt Hemp 0deg
52,4.33198,0.74293,Basalt Hemp 0deg_1,Basalt Hemp 0deg
53,4.41532,0.753716,Basalt Hemp 0deg_1,Basalt Hemp 0deg
54,4.49866,0.764368,Basalt Hemp 0deg_1,Basalt Hemp 0deg
55,4.58199,0.766796,Basalt Hemp 0deg_1,Basalt Hemp 0deg
56,4.66532,0.759014,Basalt Hemp 0deg_1,Basalt Hemp 0deg
57,4.74867,0.762374,Basalt Hemp 0deg_1,Basalt Hemp 0deg
58,4.82612,0.77114,Basalt Hemp 0deg_1,Basalt Hemp 0deg
0,0.0,0.0268796,Basalt Hemp 0deg_2,Basalt Hemp 0deg
1,0.0820091,0.039292,Basalt Hemp 0deg_2,Basalt Hemp 0deg
2,0.165331,0.051852,Basalt Hemp 0deg_2,Basalt Hemp 0deg
3,0.248633,0.064796,Basalt Hemp 0deg_2,Basalt Hemp 0deg
4,0.331985,0.077918,Basalt Hemp 0deg_2,Basalt Hemp 0deg
5,0.415331,0.090868,Basalt Hemp 0deg_2,Basalt Hemp 0deg
6,0.498651,0.103978,Basalt Hemp 0deg_2,Basalt Hemp 0deg
7,0.582009,0.117028,Basalt Hemp 0deg_2,Basalt Hemp 0deg
8,0.665339,0.129632,Basalt Hemp 0deg_2,Basalt Hemp 0deg
9,0.748663,0.142268,Basalt Hemp 0deg_2,Basalt Hemp 0deg
10,0.831997,0.15493,Basalt Hemp 0deg_2,Basalt Hemp 0deg
11,0.915349,0.16764,Basalt Hemp 0deg_2,Basalt Hemp 0deg
12,0.998633,0.18019,Basalt Hemp 0deg_2,Basalt Hemp 0deg
13,1.08199,0.192456,Basalt Hemp 0deg_2,Basalt Hemp 0deg
14,1.16533,0.204752,Basalt Hemp 0deg_2,Basalt Hemp 0deg
15,1.24864,0.21685,Basalt Hemp 0deg_2,Basalt Hemp 0deg
16,1.332,0.228916,Basalt Hemp 0deg_2,Basalt Hemp 0deg
17,1.41534,0.24083,Basalt Hemp 0deg_2,Basalt Hemp 0deg
18,1.49867,0.252508,Basalt Hemp 0deg_2,Basalt Hemp 0deg
19,1.58198,0.264062,Basalt Hemp 0deg_2,Basalt Hemp 0deg
20,1.66535,0.275716,Basalt Hemp 0deg_2,Basalt Hemp 0deg
21,1.74865,0.287326,Basalt Hemp 0deg_2,Basalt Hemp 0deg
22,1.832,0.29866,Basalt Hemp 0deg_2,Basalt Hemp 0deg
23,1.91534,0.309734,Basalt Hemp 0deg_2,Basalt Hemp 0deg
24,1.99866,0.320568,Basalt Hemp 0deg_2,Basalt Hemp 0deg
25,2.08201,0.33143,Basalt Hemp 0deg_2,Basalt Hemp 0deg
26,2.16534,0.341834,Basalt Hemp 0deg_2,Basalt Hemp 0deg
27,2.24864,0.352306,Basalt Hemp 0deg_2,Basalt Hemp 0deg
28,2.332,0.362496,Basalt Hemp 0deg_2,Basalt Hemp 0deg
29,2.41534,0.372586,Basalt Hemp 0deg_2,Basalt Hemp 0deg
30,2.49866,0.382524,Basalt Hemp 0deg_2,Basalt Hemp 0deg
31,2.58199,0.392474,Basalt Hemp 0deg_2,Basalt Hemp 0deg
32,2.66535,0.402332,Basalt Hemp 0deg_2,Basalt Hemp 0deg
[...]
112,9.33197,0.360732,Flax 45deg_1,Flax 45deg
113,9.41532,0.35893,Flax 45deg_1,Flax 45deg
114,9.49863,0.358126,Flax 45deg_1,Flax 45deg
115,9.58196,0.35725,Flax 45deg_1,Flax 45deg
116,9.66533,0.35338,Flax 45deg_1,Flax 45deg
117,9.74865,0.269858,Flax 45deg_1,Flax 45deg
118,9.83197,0.128924,Flax 45deg_1,Flax 45deg
119,9.91532,0.127372,Flax 45deg_1,Flax 45deg
120,9.99613,0.122726,Flax 45deg_1,Flax 45deg
0,0.0,0.0241673,Flax 45deg_2,Flax 45deg
1,0.082009,0.030872,Flax 45deg_2,Flax 45deg
2,0.165307,0.037836,Flax 45deg_2,Flax 45deg
3,0.248649,0.044634,Flax 45deg_2,Flax 45deg
4,0.331999,0.051562,Flax 45deg_2,Flax 45deg
5,0.415305,0.058422,Flax 45deg_2,Flax 45deg
6,0.498647,0.065426,Flax 45deg_2,Flax 45deg
7,0.582009,0.072488,Flax 45deg_2,Flax 45deg
8,0.665327,0.079366,Flax 45deg_2,Flax 45deg
9,0.748649,0.086306,Flax 45deg_2,Flax 45deg
10,0.832027,0.093062,Flax 45deg_2,Flax 45deg
11,0.915317,0.099706,Flax 45deg_2,Flax 45deg
12,0.998651,0.106504,Flax 45deg_2,Flax 45deg
13,1.08201,0.113158,Flax 45deg_2,Flax 45deg
14,1.16531,0.119642,Flax 45deg_2,Flax 45deg
15,1.24865,0.126038,Flax 45deg_2,Flax 45deg
16,1.33201,0.132292,Flax 45deg_2,Flax 45deg
17,1.4153,0.13852,Flax 45deg_2,Flax 45deg
18,1.49866,0.144658,Flax 45deg_2,Flax 45deg
19,1.58201,0.150746,Flax 45deg_2,Flax 45deg
20,1.66531,0.15679,Flax 45deg_2,Flax 45deg
21,1.74865,0.16282,Flax 45deg_2,Flax 45deg
22,1.83199,0.16869,Flax 45deg_2,Flax 45deg
23,1.91533,0.174474,Flax 45deg_2,Flax 45deg
24,1.99865,0.1802,Flax 45deg_2,Flax 45deg
25,2.082,0.185702,Flax 45deg_2,Flax 45deg
26,2.16532,0.191198,Flax 45deg_2,Flax 45deg
27,2.24865,0.19669,Flax 45deg_2,Flax 45deg
28,2.33199,0.20212,Flax 45deg_2,Flax 45deg
29,2.41532,0.207362,Flax 45deg_2,Flax 45deg
30,2.49865,0.212596,Flax 45deg_2,Flax 45deg
31,2.582,0.217778,Flax 45deg_2,Flax 45deg
32,2.66532,0.222678,Flax 45deg_2,Flax 45deg
33,2.74865,0.22774,Flax 45deg_2,Flax 45deg
34,2.83201,0.232576,Flax 45deg_2,Flax 45deg
35,2.91532,0.237304,Flax 45deg_2,Flax 45deg
36,2.99866,0.242052,Flax 45deg_2,Flax 45deg
37,3.082,0.246738,Flax 45deg_2,Flax 45deg
38,3.16532,0.251242,Flax 45deg_2,Flax 45deg
39,3.24864,0.255742,Flax 45deg_2,Flax 45deg
40,3.33201,0.260216,Flax 45deg_2,Flax 45deg
41,3.41532,0.26452,Flax 45deg_2,Flax 45deg
42,3.49866,0.26887,Flax 45deg_2,Flax 45deg
43,3.58201,0.27315,Flax 45deg_2,Flax 45deg
44,3.66532,0.277422,Flax 45deg_2,Flax 45deg
45,3.74866,0.281602,Flax 45deg_2,Flax 45deg
46,3.83201,0.285778,Flax 45deg_2,Flax 45deg
47,3.9153,0.289826,Flax 45deg_2,Flax 45deg
48,3.99865,0.29381,Flax 45deg_2,Flax 45deg
49,4.08201,0.297684,Flax 45deg_2,Flax 45deg
50,4.16531,0.301406,Flax 45deg_2,Flax 45deg
51,4.24866,0.305034,Flax 45deg_2,Flax 45deg
52,4.332,0.30855,Flax 45deg_2,Flax 45deg
53,4.41532,0.312028,Flax 45deg_2,Flax 45deg
54,4.49866,0.315408,Flax 45deg_2,Flax 45deg
55,4.582,0.318712,Flax 45deg_2,Flax 45deg
56,4.66531,0.321948,Flax 45deg_2,Flax 45deg
57,4.74866,0.32518,Flax 45deg_2,Flax 45deg
58,4.832,0.328276,Flax 45deg_2,Flax 45deg
59,4.9153,0.33121,Flax 45deg_2,Flax 45deg
60,4.99865,0.334212,Flax 45deg_2,Flax 45deg
61,5.08201,0.337204,Flax 45deg_2,Flax 45deg
62,5.16531,0.340024,Flax 45deg_2,Flax 45deg
63,5.24865,0.342754,Flax 45deg_2,Flax 45deg
64,5.33201,0.345566,Flax 45deg_2,Flax 45deg
65,5.41532,0.34818,Flax 45deg_2,Flax 45deg
66,5.49865,0.350894,Flax 45deg_2,Flax 45deg
67,5.58199,0.35356,Flax 45deg_2,Flax 45deg
68,5.66532,0.356208,Flax 45deg_2,Flax 45deg
69,5.74865,0.358758,Flax 45deg_2,Flax 45deg
70,5.832,0.361216,Flax 45deg_2,Flax 45deg
71,5.91532,0.363732,Flax 45deg_2,Flax 45deg
72,5.99865,0.366168,Flax 45deg_2,Flax 45deg
73,6.08201,0.36853,Flax 45deg_2,Flax 45deg
74,6.16532,0.370778,Flax 45deg_2,Flax 45deg
75,6.24866,0.373034,Flax 45deg_2,Flax 45deg
76,6.33201,0.375236,Flax 45deg_2,Flax 45deg
77,6.41531,0.377366,Flax 45deg_2,Flax 45deg
78,6.49864,0.37943,Flax 45deg_2,Flax 45deg
79,6.582,0.38158,Flax 45deg_2,Flax 45deg
80,6.66532,0.38357,Flax 45deg_2,Flax 45deg
81,6.74865,0.385566,Flax 45deg_2,Flax 45deg
82,6.83199,0.38762,Flax 45deg_2,Flax 45deg
83,6.91533,0.389502,Flax 45deg_2,Flax 45deg
84,6.99865,0.391422,Flax 45deg_2,Flax 45deg
85,7.082,0.393266,Flax 45deg_2,Flax 45deg
86,7.16532,0.39494,Flax 45deg_2,Flax 45deg
87,7.24867,0.39663,Flax 45deg_2,Flax 45deg
88,7.332,0.398394,Flax 45deg_2,Flax 45deg
89,7.41532,0.400068,Flax 45deg_2,Flax 45deg
90,7.49866,0.401792,Flax 45deg_2,Flax 45deg
91,7.582,0.403382,Flax 45deg_2,Flax 45deg
92,7.66532,0.404936,Flax 45deg_2,Flax 45deg
93,7.74865,0.406498,Flax 45deg_2,Flax 45deg
94,7.832,0.408054,Flax 45deg_2,Flax 45deg
95,7.91532,0.409364,Flax 45deg_2,Flax 45deg
96,7.99866,0.410466,Flax 45deg_2,Flax 45deg
97,8.082,0.411738,Flax 45deg_2,Flax 45deg
98,8.16533,0.413018,Flax 45deg_2,Flax 45deg
99,8.24866,0.414236,Flax 45deg_2,Flax 45deg
100,8.33201,0.415434,Flax 45deg_2,Flax 45deg
101,8.41531,0.41608,Flax 45deg_2,Flax 45deg
102,8.49865,0.415682,Flax 45deg_2,Flax 45deg
103,8.58201,0.414996,Flax 45deg_2,Flax 45deg
104,8.66532,0.412752,Flax 45deg_2,Flax 45deg
105,8.74865,0.41052,Flax 45deg_2,Flax 45deg
106,8.83201,0.40593,Flax 45deg_2,Flax 45deg
107,8.91532,0.40376,Flax 45deg_2,Flax 45deg
108,8.99865,0.402696,Flax 45deg_2,Flax 45deg
109,9.08199,0.3992,Flax 45deg_2,Flax 45deg
110,9.16532,0.391876,Flax 45deg_2,Flax 45deg
111,9.24865,0.383822,Flax 45deg_2,Flax 45deg
112,9.33201,0.35809,Flax 45deg_2,Flax 45deg
113,9.41446,0.132633,Flax 45deg_2,Flax 45deg
0,0.0,0.0237306,Hemp 0deg_2,Hemp 0deg
1,0.0819669,0.030022,Hemp 0deg_2,Hemp 0deg
2,0.165333,0.036532,Hemp 0deg_2,Hemp 0deg
3,0.248641,0.04286,Hemp 0deg_2,Hemp 0deg
4,0.331959,0.049234,Hemp 0deg_2,Hemp 0deg
5,0.415321,0.055634,Hemp 0deg_2,Hemp 0deg
6,0.498651,0.061962,Hemp 0deg_2,Hemp 0deg
7,0.581977,0.06872,Hemp 0deg_2,Hemp 0deg
8,0.665331,0.075432,Hemp 0deg_2,Hemp 0deg
9,0.748655,0.08211,Hemp 0deg_2,Hemp 0deg
10,0.831985,0.088644,Hemp 0deg_2,Hemp 0deg
11,0.915335,0.095034,Hemp 0deg_2,Hemp 0deg
12,0.998647,0.101382,Hemp 0deg_2,Hemp 0deg
13,1.08196,0.107662,Hemp 0deg_2,Hemp 0deg
14,1.16534,0.113914,Hemp 0deg_2,Hemp 0deg
15,1.24864,0.119858,Hemp 0deg_2,Hemp 0deg
16,1.33196,0.125662,Hemp 0deg_2,Hemp 0deg
17,1.41534,0.131428,Hemp 0deg_2,Hemp 0deg
18,1.49866,0.137016,Hemp 0deg_2,Hemp 0deg
19,1.58197,0.14249,Hemp 0deg_2,Hemp 0deg
20,1.66534,0.147784,Hemp 0deg_2,Hemp 0deg
21,1.74866,0.153142,Hemp 0deg_2,Hemp 0deg
22,1.83197,0.15838,Hemp 0deg_2,Hemp 0deg
23,1.91535,0.163622,Hemp 0deg_2,Hemp 0deg
24,1.99866,0.168734,Hemp 0deg_2,Hemp 0deg
25,2.08199,0.173728,Hemp 0deg_2,Hemp 0deg
26,2.16534,0.178624,Hemp 0deg_2,Hemp 0deg
27,2.24865,0.183442,Hemp 0deg_2,Hemp 0deg
28,2.33196,0.188118,Hemp 0deg_2,Hemp 0deg
29,2.41534,0.192688,Hemp 0deg_2,Hemp 0deg
30,2.49866,0.197224,Hemp 0deg_2,Hemp 0deg
31,2.58198,0.201646,Hemp 0deg_2,Hemp 0deg
32,2.66533,0.20592,Hemp 0deg_2,Hemp 0deg
33,2.74866,0.210132,Hemp 0deg_2,Hemp 0deg
34,2.83197,0.214178,Hemp 0deg_2,Hemp 0deg
35,2.91534,0.21824,Hemp 0deg_2,Hemp 0deg
36,2.99866,0.222136,Hemp 0deg_2,Hemp 0deg
37,3.08199,0.225972,Hemp 0deg_2,Hemp 0deg
38,3.16534,0.229726,Hemp 0deg_2,Hemp 0deg
39,3.24864,0.233478,Hemp 0deg_2,Hemp 0deg
40,3.33197,0.237058,Hemp 0deg_2,Hemp 0deg
41,3.41533,0.240684,Hemp 0deg_2,Hemp 0deg
42,3.49865,0.244168,Hemp 0deg_2,Hemp 0deg
43,3.58198,0.247318,Hemp 0deg_2,Hemp 0deg
44,3.66535,0.2503,Hemp 0deg_2,Hemp 0deg
45,3.74865,0.253378,Hemp 0deg_2,Hemp 0deg
46,3.83197,0.25647,Hemp 0deg_2,Hemp 0deg
47,3.91533,0.259486,Hemp 0deg_2,Hemp 0deg
48,3.99866,0.262202,Hemp 0deg_2,Hemp 0deg
49,4.08197,0.26489,Hemp 0deg_2,Hemp 0deg
50,4.16533,0.267426,Hemp 0deg_2,Hemp 0deg
51,4.24865,0.269992,Hemp 0deg_2,Hemp 0deg
52,4.33199,0.272748,Hemp 0deg_2,Hemp 0deg
53,4.41534,0.275406,Hemp 0deg_2,Hemp 0deg
54,4.49865,0.277966,Hemp 0deg_2,Hemp 0deg
55,4.58197,0.280426,Hemp 0deg_2,Hemp 0deg
56,4.66534,0.282714,Hemp 0deg_2,Hemp 0deg
57,4.74865,0.285046,Hemp 0deg_2,Hemp 0deg
58,4.83196,0.286828,Hemp 0deg_2,Hemp 0deg
59,4.91535,0.28894,Hemp 0deg_2,Hemp 0deg
60,4.99864,0.290944,Hemp 0deg_2,Hemp 0deg
61,5.08198,0.293066,Hemp 0deg_2,Hemp 0deg
62,5.16534,0.294474,Hemp 0deg_2,Hemp 0deg
63,5.24867,0.292014,Hemp 0deg_2,Hemp 0deg
64,5.33198,0.287414,Hemp 0deg_2,Hemp 0deg
65,5.41534,0.283108,Hemp 0deg_2,Hemp 0deg
66,5.49864,0.27281,Hemp 0deg_2,Hemp 0deg
67,5.58199,0.264608,Hemp 0deg_2,Hemp 0deg
68,5.66533,0.256638,Hemp 0deg_2,Hemp 0deg
69,5.74864,0.24932,Hemp 0deg_2,Hemp 0deg
70,5.83196,0.246028,Hemp 0deg_2,Hemp 0deg
71,5.91534,0.240622,Hemp 0deg_2,Hemp 0deg
72,5.99866,0.19867,Hemp 0deg_2,Hemp 0deg
73,6.08197,0.160982,Hemp 0deg_2,Hemp 0deg
74,6.16535,0.154378,Hemp 0deg_2,Hemp 0deg
75,6.24866,0.151062,Hemp 0deg_2,Hemp 0deg
76,6.33198,0.147924,Hemp 0deg_2,Hemp 0deg
77,6.41531,0.145678,Hemp 0deg_2,Hemp 0deg