Folder: ts_t/files

File: Trevor_Composites_Flexural_ES100_1_1.csv
Results Table 1

Results Table 2

Time,Displacement,Force
(s),(mm),(kN)
"0.0000","2.5991","0.0492"
"1.0800","2.6171","0.0504"
"2.1600","2.6350","0.0509"
"3.2400","2.6530","0.0519"
"4.3200","2.6709","0.0526"
"5.4000","2.6889","0.0536"
"6.4800","2.7069","0.0542"
"7.5600","2.7248","0.0554"
"8.6400","2.7429","0.0566"
"9.7200","2.7608","0.0578"
"10.8000","2.7790","0.0589"
"11.8800","2.7968","0.0598"
"12.9600","2.8150","0.0604"
"14.0400","2.8329","0.0614"
"15.1200","2.8511","0.0627"
"16.2000","2.8689","0.0638"
"17.2800","2.8871","0.0649"
"18.3600","2.9050","0.0656"
"19.4400","2.9231","0.0665"
"20.5200","2.9409","0.0676"
"21.6000","2.9590","0.0684"
"22.6800","2.9769","0.0697"
"23.7600","2.9949","0.0703"
"24.8400","3.0129","0.0715"
"25.9200","3.0309","0.0726"
"27.0000","3.0489","0.0737"
"28.0800","3.0669","0.0747"
"29.1600","3.0849","0.0759"
"30.2400","3.1029","0.0768"
"31.3200","3.1209","0.0779"
"32.4000","3.1389","0.0787"
"33.4800","3.1571","0.0795"
"34.5600","3.1751","0.0805"
"35.6400","3.1932","0.0815"
"36.7200","3.2112","0.0825"
"37.8000","3.2293","0.0837"
"38.8800","3.2472","0.0847"
"39.9600","3.2652","0.0854"
"41.0400","3.2833","0.0865"
"42.1200","3.3012","0.0877"
"43.2000","3.3193","0.0887"
"44.2800","3.3371","0.0895"
"45.3600","3.3551","0.0905"
"46.4400","3.3731","0.0916"
"47.5200","3.3911","0.0927"
"48.6000","3.4089","0.0937"
"49.6800","3.4269","0.0943"
"50.7600","3.4449","0.0953"
"51.8400","3.4629","0.0962"
"52.9200","3.4810","0.0973"
"54.0000","3.4989","0.0984"
"55.0800","3.5170","0.0993"
"56.1600","3.5349","0.1004"
"57.2400","3.5531","0.1013"
"58.3200","3.5709","0.1025"
"59.4000","3.5891","0.1031"
"60.4800","3.6070","0.1044"
"61.5600","3.6251","0.1054"
"62.6400","3.6431","0.1063"
"63.7200","3.6611","0.1070"
"64.8000","3.6791","0.1080"
"65.8800","3.6971","0.1091"
"66.9600","3.7149","0.1100"
"68.0400","3.7330","0.1108"
"69.1200","3.7509","0.1117"
"70.2000","3.7689","0.1128"
"71.2800","3.7869","0.1140"
"72.3600","3.8049","0.1147"
"73.4400","3.8229","0.1155"
"74.5200","3.8409","0.1165"
"75.6000","3.8589","0.1172"
"76.6800","3.8769","0.1182"
"77.7600","3.8950","0.1193"
"78.8400","3.9131","0.1201"
"79.9200","3.9311","0.1213"
"81.0000","3.9491","0.1215"
"82.0800","3.9673","0.1230"
"83.1600","3.9853","0.1239"
"84.2400","4.0033","0.1248"
"85.3200","4.0213","0.1255"
"86.4000","4.0392","0.1266"
"87.4800","4.0573","0.1278"
"88.5600","4.0751","0.1284"
"89.6400","4.0931","0.1292"
"90.7200","4.1110","0.1300"
"91.8000","4.1291","0.1310"
"92.8800","4.1469","0.1313"
"93.9600","4.1649","0.1329"
"95.0400","4.1829","0.1333"
"96.1200","4.2009","0.1346"
"97.2000","4.2189","0.1352"
"98.2800","4.2368","0.1361"
"99.3600","4.2549","0.1370"
"100.4400","4.2729","0.1376"
"101.5200","4.2910","0.1388"
"102.6000","4.3089","0.1396"
"103.6800","4.3270","0.1405"
"104.7600","4.3449","0.1414"
"105.8400","4.3631","0.1420"
"106.9200","4.3810","0.1429"
"108.0000","4.3991","0.1439"
"109.0800","4.4170","0.1447"
"110.1600","4.4351","0.1457"
"111.2400","4.4529","0.1463"
"112.3200","4.4710","0.1471"
"113.4000","4.4889","0.1480"
"114.4800","4.5069","0.1485"
"115.5600","4.5249","0.1496"
"116.6400","4.5429","0.1502"
"117.7200","4.5609","0.1514"
"118.8000","4.5789","0.1518"
"119.8800","4.5969","0.1528"
"120.9600","4.6150","0.1534"
"122.0400","4.6331","0.1547"
"123.1200","4.6511","0.1555"
"124.2000","4.6692","0.1559"
"125.2800","4.6872","0.1570"
"126.3600","4.7053","0.1577"
"127.4400","4.7233","0.1587"
"128.5200","4.7414","0.1593"
"129.6000","4.7593","0.1597"
"130.6800","4.7773","0.1611"
"131.7600","4.7953","0.1618"
"132.8400","4.8133","0.1623"
"133.9200","4.8313","0.1634"
"135.0000","4.8491","0.1638"
"136.0800","4.8671","0.1646"
"137.1600","4.8850","0.1654"
"138.2400","4.9029","0.1661"
"139.3200","4.9209","0.1669"
"140.4000","4.9389","0.1678"
"141.4800","4.9569","0.1685"
"142.5600","4.9748","0.1691"
"143.6400","4.9929","0.1698"
"144.7200","5.0108","0.1708"
"145.8000","5.0289","0.1713"
"146.8800","5.0468","0.1723"
"147.9600","5.0650","0.1726"
"149.0400","5.0829","0.1735"
"150.1200","5.1010","0.1743"
"151.2000","5.1189","0.1750"
"152.2800","5.1371","0.1755"
"153.3600","5.1550","0.1764"
"154.4400","5.1730","0.1770"
"155.5200","5.1909","0.1778"
"156.6000","5.2090","0.1786"
"157.6800","5.2269","0.1792"
"158.7600","5.2449","0.1796"
"159.8400","5.2629","0.1807"
"160.9200","5.2809","0.1814"
"162.0000","5.2989","0.1820"
"163.0800","5.3169","0.1829"
"164.1600","5.3349","0.1834"
"165.2400","5.3529","0.1841"
"166.3200","5.3709","0.1850"
"167.4000","5.3889","0.1858"
"168.4800","5.4071","0.1860"
"169.5600","5.4251","0.1864"
"170.6400","5.4432","0.1872"
"171.7200","5.4613","0.1881"
"172.8000","5.4793","0.1888"
"173.8800","5.4973","0.1892"
"174.9600","5.5153","0.1903"
"176.0400","5.5333","0.1908"
"177.1200","5.5512","0.1916"
"178.2000","5.5693","0.1922"
"179.2800","5.5871","0.1929"
"180.3600","5.6051","0.1935"
"181.4400","5.6231","0.1941"
"182.5200","5.6411","0.1948"
"183.6000","5.6590","0.1955"
"184.6800","5.6769","0.1961"
"185.7600","5.6950","0.1965"
"186.8400","5.7129","0.1973"
"187.9200","5.7310","0.1977"
"189.0000","5.7489","0.1985"
"190.0800","5.7671","0.1990"
"191.1600","5.7849","0.2000"
"192.2400","5.8031","0.2001"
"193.3200","5.8210","0.2009"
"194.4000","5.8391","0.2016"
"195.4800","5.8571","0.2020"
"196.5600","5.8752","0.2028"
"197.6400","5.8931","0.2030"
"198.7200","5.9111","0.2044"
"199.8000","5.9290","0.2045"
"200.8800","5.9471","0.2054"
"201.9600","5.9649","0.2055"
"203.0400","5.9829","0.2062"
"204.1200","6.0009","0.2067"
"205.2000","6.0189","0.2075"
"206.2800","6.0369","0.2078"
"207.3600","6.0549","0.2086"
"208.4400","6.0729","0.2094"
"209.5200","6.0909","0.2099"
"210.6000","6.1089","0.2106"
"211.6800","6.1269","0.2108"
"212.7600","6.1450","0.2115"
"213.8400","6.1631","0.2119"
"214.9200","6.1811","0.2126"
"216.0000","6.1991","0.2131"
"217.0800","6.2172","0.2138"
"218.1600","6.2352","0.2140"
"219.2400","6.2533","0.2145"
"220.3200","6.2712","0.2153"
"221.4000","6.2892","0.2155"
"222.4800","6.3073","0.2163"
"223.5600","6.3251","0.2167"
"224.6400","6.3431","0.2176"
"225.7200","6.3610","0.2179"
"226.8000","6.3790","0.2186"
"227.8800","6.3969","0.2188"
"228.9600","6.4149","0.2194"
"230.0400","6.4329","0.2201"
"231.1200","6.4509","0.2208"
"232.2000","6.4689","0.2209"
"233.2800","6.4869","0.2216"
"234.3600","6.5049","0.2220"
"235.4400","6.5229","0.2226"
"236.5200","6.5410","0.2231"
"237.6000","6.5589","0.2237"
"238.6800","6.5770","0.2241"
"239.7600","6.5949","0.2246"
"240.8400","6.6131","0.2251"
"241.9200","6.6310","0.2256"
"243.0000","6.6491","0.2257"
"244.0800","6.6670","0.2265"
"245.1600","6.6851","0.2273"
"246.2400","6.7029","0.2276"
"247.3200","6.7210","0.2279"
"248.4000","6.7389","0.2285"
"249.4800","6.7569","0.2288"
"250.5600","6.7749","0.2293"
"251.6400","6.7929","0.2299"
"252.7200","6.8109","0.2307"
"253.8000","6.8289","0.2308"
"254.8800","6.8469","0.2314"
"255.9600","6.8650","0.2319"
"257.0400","6.8831","0.2321"
"258.1200","6.9011","0.2325"
"259.2000","6.9192","0.2333"
"260.2800","6.9373","0.2336"
"261.3600","6.9553","0.2342"
"262.4400","6.9733","0.2346"
"263.5200","6.9913","0.2351"
"264.6000","7.0094","0.2354"
"265.6800","7.0273","0.2361"
"266.7600","7.0453","0.2365"
"267.8400","7.0633","0.2367"
"268.9200","7.0813","0.2372"
"270.0000","7.0991","0.2377"
"271.0800","7.1171","0.2384"
"272.1600","7.1350","0.2386"
"273.2400","7.1529","0.2387"
"274.3200","7.1709","0.2390"
"275.4000","7.1889","0.2397"
"276.4800","7.2069","0.2402"
"277.5600","7.2248","0.2406"
"278.6400","7.2429","0.2408"
"279.7200","7.2609","0.2418"
"280.8000","7.2789","0.2417"
"281.8800","7.2968","0.2422"
"282.9600","7.3150","0.2423"
"284.0400","7.3329","0.2430"
"285.1200","7.3510","0.2434"
"286.2000","7.3689","0.2439"
"287.2800","7.3871","0.2440"
"288.3600","7.4049","0.2445"
"289.4400","7.4231","0.2446"
"290.5200","7.4409","0.2452"
"291.6000","7.4590","0.2452"
"292.6800","7.4769","0.2461"
"293.7600","7.4949","0.2463"
"294.8400","7.5129","0.2469"
"295.9200","7.5309","0.2470"
"297.0000","7.5489","0.2475"
"298.0800","7.5669","0.2479"
"299.1600","7.5849","0.2483"
"300.2400","7.6029","0.2487"
"301.3200","7.6209","0.2491"
"302.4000","7.6389","0.2493"
"303.4800","7.6571","0.2498"
"304.5600","7.6751","0.2502"
"305.6400","7.6932","0.2506"
"306.7200","7.7113","0.2511"
"307.8000","7.7292","0.2511"
"308.8800","7.7472","0.2512"
"309.9600","7.7653","0.2520"
"311.0400","7.7833","0.2521"
"312.1200","7.8012","0.2528"
"313.2000","7.8193","0.2532"
"314.2800","7.8371","0.2533"
"315.3600","7.8551","0.2535"
"316.4400","7.8731","0.2543"
"317.5200","7.8911","0.2545"
"318.6000","7.9090","0.2542"
"319.6800","7.9269","0.2547"
"319.8240","7.9294","0.2546"