Folder: ts_t/flexural (part 3)

File: ES100_Trevor_Flexural_Data_7_1.csv
Specimen text inputs : Specimen text input  1,,""

Results Table 1
,Specimen text input  1
"7","f45_f1"

Results Table 2

Time,Displacement,Force
(s),(mm),(kN)
"0.0000","1.3267","0.0201"
"0.4200","1.3604","0.0235"
"0.8400","1.3955","0.0263"
"1.2600","1.4304","0.0290"
"1.6800","1.4655","0.0320"
"2.1000","1.5006","0.0343"
"2.5200","1.5355","0.0378"
"2.9400","1.5706","0.0405"
"3.3600","1.6055","0.0436"
"3.7800","1.6405","0.0462"
"4.2000","1.6754","0.0487"
"4.6200","1.7105","0.0518"
"5.0400","1.7456","0.0548"
"5.4600","1.7805","0.0573"
"5.8800","1.8155","0.0603"
"6.3000","1.8505","0.0630"
"6.7200","1.8855","0.0665"
"7.1400","1.9204","0.0692"
"7.5600","1.9554","0.0715"
"7.9800","1.9904","0.0744"
"8.4000","2.0254","0.0769"
"8.8200","2.0605","0.0801"
"9.2400","2.0955","0.0829"
"9.6600","2.1306","0.0855"
"10.0800","2.1656","0.0879"
"10.5000","2.2006","0.0906"
"10.9200","2.2356","0.0933"
"11.3400","2.2706","0.0964"
"11.7600","2.3056","0.0986"
"12.1800","2.3405","0.1016"
"12.6000","2.3755","0.1039"
"13.0200","2.4104","0.1064"
"13.4400","2.4455","0.1095"
"13.8600","2.4804","0.1116"
"14.2800","2.5154","0.1144"
"14.7000","2.5504","0.1167"
"15.1200","2.5854","0.1193"
"15.5400","2.6205","0.1215"
"15.9600","2.6555","0.1237"
"16.3800","2.6906","0.1267"
"16.8000","2.7256","0.1287"
"17.2200","2.7607","0.1314"
"17.6400","2.7955","0.1337"
"18.0600","2.8305","0.1359"
"18.4800","2.8654","0.1381"
"18.9000","2.9004","0.1403"
"19.3200","2.9354","0.1428"
"19.7400","2.9704","0.1452"
"20.1600","3.0056","0.1475"
"20.5800","3.0404","0.1496"
"21.0000","3.0755","0.1519"
"21.4200","3.1105","0.1539"
"21.8400","3.1455","0.1560"
"22.2600","3.1805","0.1585"
"22.6800","3.2156","0.1604"
"23.1000","3.2505","0.1630"
"23.5200","3.2856","0.1653"
"23.9400","3.3206","0.1677"
"24.3600","3.3556","0.1692"
"24.7800","3.3905","0.1712"
"25.2000","3.4254","0.1731"
"25.6200","3.4605","0.1758"
"26.0400","3.4956","0.1779"
"26.4600","3.5306","0.1801"
"26.8800","3.5655","0.1818"
"27.3000","3.6005","0.1838"
"27.7200","3.6355","0.1859"
"28.1400","3.6705","0.1880"
"28.5600","3.7054","0.1905"
"28.9800","3.7404","0.1923"
"29.4000","3.7754","0.1941"
"29.8200","3.8105","0.1961"
"30.2400","3.8455","0.1979"
"30.6600","3.8806","0.1998"
"31.0800","3.9155","0.2014"
"31.5000","3.9506","0.2034"
"31.9200","3.9856","0.2057"
"32.3400","4.0206","0.2073"
"32.7600","4.0555","0.2096"
"33.1800","4.0905","0.2113"
"33.6000","4.1255","0.2129"
"34.0200","4.1604","0.2151"
"34.4400","4.1955","0.2171"
"34.8600","4.2304","0.2188"
"35.2800","4.2654","0.2203"
"35.7000","4.3004","0.2222"
"36.1200","4.3355","0.2237"
"36.5400","4.3705","0.2254"
"36.9600","4.4055","0.2269"
"37.3800","4.4406","0.2292"
"37.8000","4.4756","0.2304"
"38.2200","4.5107","0.2325"
"38.6400","4.5454","0.2345"
"39.0600","4.5805","0.2356"
"39.4800","4.6155","0.2371"
"39.9000","4.6504","0.2389"
"40.3200","4.6855","0.2405"
"40.7400","4.7205","0.2427"
"41.1600","4.7555","0.2439"
"41.5800","4.7905","0.2454"
"42.0000","4.8255","0.2471"
"42.4200","4.8604","0.2487"
"42.8400","4.8954","0.2509"
"43.2600","4.9305","0.2522"
"43.6800","4.9656","0.2537"
"44.1000","5.0006","0.2552"
"44.5200","5.0355","0.2569"
"44.9400","5.0706","0.2586"
"45.3600","5.1056","0.2599"
"45.7800","5.1405","0.2612"
"46.2000","5.1754","0.2627"
"46.6200","5.2106","0.2645"
"47.0400","5.2456","0.2664"
"47.4600","5.2806","0.2679"
"47.8800","5.3156","0.2691"
"48.3000","5.3505","0.2705"
"48.7200","5.3855","0.2722"
"49.1400","5.4204","0.2736"
"49.5600","5.4554","0.2752"
"49.9800","5.4904","0.2766"
"50.4000","5.5254","0.2781"
"50.8200","5.5605","0.2794"
"51.2400","5.5955","0.2812"
"51.6600","5.6306","0.2823"
"52.0800","5.6655","0.2838"
"52.5000","5.7006","0.2850"
"52.9200","5.7356","0.2868"
"53.3400","5.7706","0.2883"
"53.7600","5.8056","0.2897"
"54.1800","5.8405","0.2907"
"54.6000","5.8755","0.2920"
"55.0200","5.9104","0.2933"
"55.4400","5.9455","0.2948"
"55.8600","5.9804","0.2959"
"56.2800","6.0154","0.2971"
"56.7000","6.0504","0.2986"
"57.1200","6.0855","0.2999"
"57.5400","6.1205","0.3011"
"57.9600","6.1555","0.3022"
"58.3800","6.1906","0.3031"
"58.8000","6.2256","0.3041"
"59.2200","6.2607","0.3059"
"59.6400","6.2955","0.3070"
"60.0600","6.3304","0.3079"
"60.4800","6.3654","0.3090"
"60.9000","6.4004","0.3102"
"61.3200","6.4355","0.3110"
"61.7400","6.4705","0.3122"
"62.1600","6.5056","0.3136"
"62.5800","6.5405","0.3145"
"63.0000","6.5756","0.3157"
"63.4200","6.6105","0.3168"
"63.8400","6.6454","0.3182"
"64.2600","6.6805","0.3188"
"64.6800","6.7155","0.3200"
"65.1000","6.7506","0.3212"
"65.5200","6.7855","0.3223"
"65.9400","6.8206","0.3235"
"66.3600","6.8555","0.3246"
"66.7800","6.8905","0.3253"
"67.2000","6.9254","0.3266"
"67.6200","6.9604","0.3276"
"68.0400","6.9956","0.3289"
"68.4600","7.0306","0.3292"
"68.8800","7.0656","0.3306"
"69.3000","7.1005","0.3312"
"69.7200","7.1355","0.3326"
"70.1400","7.1704","0.3338"
"70.5600","7.2054","0.3347"
"70.9800","7.2404","0.3354"
"71.4000","7.2754","0.3361"
"71.8200","7.3104","0.3375"
"72.2400","7.3454","0.3385"
"72.6600","7.3806","0.3391"
"73.0800","7.4156","0.3402"
"73.5000","7.4506","0.3409"
"73.9200","7.4856","0.3417"
"74.3400","7.5206","0.3430"
"74.7600","7.5556","0.3439"
"75.1800","7.5905","0.3446"
"75.6000","7.6255","0.3455"
"76.0200","7.6604","0.3463"
"76.4400","7.6955","0.3473"
"76.8600","7.7304","0.3481"
"77.2800","7.7654","0.3490"
"77.7000","7.8004","0.3498"
"78.1200","7.8355","0.3504"
"78.5400","7.8705","0.3511"
"78.9600","7.9055","0.3521"
"79.3800","7.9406","0.3530"
"79.8000","7.9756","0.3536"
"80.2200","8.0107","0.3547"
"80.6400","8.0456","0.3555"
"81.0600","8.0805","0.3560"
"81.4800","8.1154","0.3566"
"81.9000","8.1504","0.3576"
"82.3200","8.1855","0.3580"
"82.7400","8.2205","0.3590"
"83.1600","8.2555","0.3596"
"83.5800","8.2904","0.3605"
"84.0000","8.3255","0.3612"
"84.4200","8.3605","0.3621"
"84.8400","8.3955","0.3626"
"85.2600","8.4304","0.3633"
"85.6800","8.4655","0.3639"
"86.1000","8.5006","0.3649"
"86.5200","8.5356","0.3658"
"86.9400","8.5706","0.3661"
"87.3600","8.6054","0.3666"
"87.7800","8.6405","0.3676"
"88.2000","8.6754","0.3680"
"88.6200","8.7105","0.3688"
"89.0400","8.7456","0.3696"
"89.4600","8.7806","0.3698"
"89.8800","8.8156","0.3704"
"90.3000","8.8506","0.3712"
"90.7200","8.8856","0.3721"
"91.1400","8.9204","0.3724"
"91.5600","8.9554","0.3733"
"91.9800","8.9904","0.3735"
"92.4000","9.0254","0.3740"
"92.8200","9.0605","0.3746"
"93.2400","9.0955","0.3749"
"93.6600","9.1306","0.3760"
"94.0800","9.1656","0.3753"
"94.5000","9.2006","0.3758"
"94.9200","9.2356","0.3762"
"95.3400","9.2706","0.3772"
"95.7600","9.3056","0.3774"
"96.1800","9.3406","0.3779"
"96.6000","9.3755","0.3782"
"97.0200","9.4104","0.3788"
"97.4400","9.4455","0.3792"
"97.8600","9.4804","0.3801"
"98.2800","9.5154","0.3802"
"98.7000","9.5503","0.3809"
"99.1200","9.5854","0.3814"
"99.5400","9.6205","0.3815"
"99.9600","9.6556","0.3823"
"100.3800","9.6906","0.3826"
"100.8000","9.7256","0.3830"
"101.2200","9.7607","0.3834"
"101.6400","9.7956","0.3835"
"102.0600","9.8305","0.3831"
"102.4800","9.8654","0.3839"
"102.9000","9.9004","0.3841"
"103.3200","9.9354","0.3847"
"103.7400","9.9705","0.3850"
"104.1600","10.0056","0.3854"
"104.5800","10.0404","0.3860"
"105.0000","10.0755","0.3863"
"105.4200","10.1104","0.3868"
"105.8400","10.1454","0.3862"
"106.2600","10.1804","0.3831"
"106.6800","10.2155","0.3828"
"107.1000","10.2506","0.3810"
"107.5200","10.2856","0.3785"
"107.9400","10.3206","0.3778"
"108.3600","10.3555","0.3768"
"108.7800","10.3904","0.3764"
"109.2000","10.4254","0.3760"
"109.6200","10.4605","0.3761"
"110.0400","10.4956","0.3742"
"110.4600","10.5306","0.3723"
"110.8800","10.5656","0.3662"
"111.3000","10.6005","0.3643"
"111.7200","10.6356","0.3631"
"112.1400","10.6704","0.3614"
"112.5600","10.7054","0.3608"
"112.9800","10.7404","0.3599"
"113.4000","10.7754","0.3590"
"113.8200","10.8105","0.3586"
"114.2400","10.8455","0.3584"
"114.6600","10.8806","0.3580"
"115.0800","10.9155","0.3572"
"115.5000","10.9506","0.3571"
"115.9200","10.9856","0.3570"
"116.3400","11.0206","0.3558"
"116.7600","11.0556","0.3492"
"117.1800","11.0905","0.3456"
"117.6000","11.1255","0.3173"
"118.0200","11.1605","0.1308"
"118.4400","11.1955","0.1293"
"118.8600","11.2304","0.1277"
"119.2800","11.2654","0.1277"
"119.7000","11.3004","0.1273"
"120.1200","11.3354","0.1250"
"120.5400","11.3705","0.1223"
"120.8900","11.3997","0.1183"

File: ES100_Trevor_Flexural_Data_8_1.csv
Specimen text inputs : Specimen text input  1,,""

Results Table 1
,Specimen text input  1
"8","f45_f2"

Results Table 2

Time,Displacement,Force
(s),(mm),(kN)
"0.0000","1.3880","0.0202"
"0.3800","1.4184","0.0237"
"0.7600","1.4502","0.0261"
"1.1400","1.4818","0.0289"
"1.5200","1.5135","0.0311"
"1.9000","1.5452","0.0337"
"2.2800","1.5768","0.0364"
"2.6600","1.6085","0.0389"
"3.0400","1.6401","0.0419"
"3.4200","1.6718","0.0439"
"3.8000","1.7035","0.0470"
"4.1800","1.7352","0.0494"
"4.5600","1.7668","0.0522"
"4.9400","1.7986","0.0549"
"5.3200","1.8301","0.0572"
"5.7000","1.8618","0.0601"
"6.0800","1.8935","0.0628"
"6.4600","1.9251","0.0652"
"6.8400","1.9569","0.0682"
"7.2200","1.9885","0.0707"
"7.6000","2.0203","0.0731"
"7.9800","2.0518","0.0763"
"8.3600","2.0836","0.0788"
"8.7400","2.1151","0.0812"
"9.1200","2.1468","0.0838"
"9.5000","2.1785","0.0865"
"9.8800","2.2102","0.0888"
"10.2600","2.2419","0.0917"
"10.6400","2.2736","0.0941"
"11.0200","2.3053","0.0968"
"11.4000","2.3368","0.0991"
"11.7800","2.3686","0.1020"
"12.1600","2.4001","0.1044"
"12.5400","2.4318","0.1071"
"12.9200","2.4636","0.1094"
"13.3000","2.4953","0.1119"
"13.6800","2.5267","0.1147"
"14.0600","2.5586","0.1171"
"14.4400","2.5901","0.1198"
"14.8200","2.6218","0.1216"
"15.2000","2.6536","0.1242"
"15.5800","2.6851","0.1269"
"15.9600","2.7168","0.1292"
"16.3400","2.7486","0.1315"
"16.7200","2.7802","0.1339"
"17.1000","2.8118","0.1361"
"17.4800","2.8436","0.1383"
"17.8600","2.8751","0.1410"
"18.2400","2.9068","0.1434"
"18.6200","2.9386","0.1456"
"19.0000","2.9702","0.1476"
"19.3800","3.0019","0.1501"
"19.7600","3.0335","0.1521"
"20.1400","3.0652","0.1549"
"20.5200","3.0968","0.1570"
"20.9000","3.1286","0.1596"
"21.2800","3.1601","0.1621"
"21.6600","3.1918","0.1643"
"22.0400","3.2235","0.1666"
"22.4200","3.2552","0.1684"
"22.8000","3.2869","0.1704"
"23.1800","3.3186","0.1733"
"23.5600","3.3502","0.1749"
"23.9400","3.3819","0.1772"
"24.3200","3.4135","0.1795"
"24.7000","3.4452","0.1818"
"25.0800","3.4768","0.1835"
"25.4600","3.5086","0.1857"
"25.8400","3.5401","0.1877"
"26.2200","3.5719","0.1900"
"26.6000","3.6034","0.1919"
"26.9800","3.6352","0.1944"
"27.3600","3.6669","0.1963"
"27.7400","3.6985","0.1979"
"28.1200","3.7301","0.2001"
"28.5000","3.7620","0.2025"
"28.8800","3.7934","0.2046"
"29.2600","3.8252","0.2065"
"29.6400","3.8569","0.2079"
"30.0200","3.8886","0.2100"
"30.4000","3.9201","0.2122"
"30.7800","3.9519","0.2144"
"31.1600","3.9836","0.2162"
"31.5400","4.0151","0.2182"
"31.9200","4.0469","0.2197"
"32.3000","4.0785","0.2217"
"32.6800","4.1101","0.2237"
"33.0600","4.1418","0.2261"
"33.4400","4.1735","0.2275"
"33.8200","4.2051","0.2293"
"34.2000","4.2369","0.2311"
"34.5800","4.2686","0.2327"
"34.9600","4.3001","0.2353"
"35.3400","4.3320","0.2364"
"35.7200","4.3634","0.2384"
"36.1000","4.3951","0.2402"
"36.4800","4.4269","0.2419"
"36.8600","4.4586","0.2438"
"37.2400","4.4901","0.2458"
"37.6200","4.5219","0.2473"
"38.0000","4.5534","0.2492"
"38.3800","4.5851","0.2509"
"38.7600","4.6169","0.2523"
"39.1400","4.6485","0.2542"
"39.5200","4.6801","0.2560"
"39.9000","4.7118","0.2574"
"40.2800","4.7436","0.2596"
"40.6600","4.7751","0.2611"
"41.0400","4.8069","0.2627"
"41.4200","4.8385","0.2641"
"41.8000","4.8702","0.2659"
"42.1800","4.9018","0.2678"
"42.5600","4.9335","0.2689"
"42.9400","4.9652","0.2709"
"43.3200","4.9968","0.2724"
"43.7000","5.0286","0.2741"
"44.0800","5.0602","0.2759"
"44.4600","5.0919","0.2775"
"44.8400","5.1234","0.2788"
"45.2200","5.1553","0.2803"
"45.6000","5.1868","0.2819"
"45.9800","5.2185","0.2839"
"46.3600","5.2502","0.2853"
"46.7400","5.2819","0.2871"
"47.1200","5.3134","0.2885"
"47.5000","5.3452","0.2898"
"47.8800","5.3768","0.2917"
"48.2600","5.4084","0.2928"
"48.6400","5.4402","0.2943"
"49.0200","5.4719","0.2958"
"49.4000","5.5035","0.2972"
"49.7800","5.5352","0.2988"
"50.1600","5.5669","0.3001"
"50.5400","5.5984","0.3014"
"50.9200","5.6302","0.3034"
"51.3000","5.6618","0.3047"
"51.6800","5.6934","0.3062"
"52.0600","5.7253","0.3073"
"52.4400","5.7569","0.3080"
"52.8200","5.7884","0.3097"
"53.2000","5.8203","0.3112"
"53.5800","5.8519","0.3121"
"53.9600","5.8834","0.3136"
"54.3400","5.9152","0.3151"
"54.7200","5.9469","0.3157"
"55.1000","5.9784","0.3175"
"55.4800","6.0104","0.3187"
"55.8600","6.0418","0.3200"
"56.2400","6.0735","0.3211"
"56.6200","6.1052","0.3224"
"57.0000","6.1369","0.3237"
"57.3800","6.1684","0.3252"
"57.7600","6.2003","0.3261"
"58.1400","6.2318","0.3272"
"58.5200","6.2635","0.3290"
"58.9000","6.2952","0.3296"
"59.2800","6.3268","0.3304"
"59.6600","6.3585","0.3317"
"60.0400","6.3901","0.3329"
"60.4200","6.4219","0.3342"
"60.8000","6.4534","0.3352"
"61.1800","6.4853","0.3363"
"61.5600","6.5168","0.3376"
"61.9400","6.5486","0.3388"
"62.3200","6.5802","0.3396"
"62.7000","6.6118","0.3405"
"63.0800","6.6435","0.3419"
"63.4600","6.6751","0.3427"
"63.8400","6.7069","0.3439"
"64.2200","6.7385","0.3450"
"64.6000","6.7702","0.3458"
"64.9800","6.8017","0.3472"
"65.3600","6.8336","0.3478"
"65.7400","6.8651","0.3486"
"66.1200","6.8969","0.3499"
"66.5000","6.9286","0.3511"
"66.8800","6.9601","0.3522"
"67.2600","6.9918","0.3532"
"67.6400","7.0236","0.3540"
"68.0200","7.0552","0.3551"
"68.4000","7.0868","0.3561"
"68.7800","7.1186","0.3569"
"69.1600","7.1501","0.3580"
"69.5400","7.1818","0.3588"
"69.9200","7.2136","0.3599"
"70.3000","7.2453","0.3607"
"70.6800","7.2767","0.3616"
"71.0600","7.3086","0.3627"
"71.4400","7.3402","0.3636"
"71.8200","7.3717","0.3645"
"72.2000","7.4036","0.3659"
"72.5800","7.4351","0.3662"
"72.9600","7.4668","0.3673"
"73.3400","7.4986","0.3681"
"73.7200","7.5303","0.3695"
"74.1000","7.5618","0.3698"
"74.4800","7.5936","0.3707"
"74.8600","7.6251","0.3717"
"75.2400","7.6568","0.3727"
"75.6200","7.6886","0.3731"
"76.0000","7.7201","0.3743"
"76.3800","7.7519","0.3750"
"76.7600","7.7835","0.3761"
"77.1400","7.8152","0.3772"
"77.5200","7.8468","0.3776"
"77.9000","7.8786","0.3783"
"78.2800","7.9101","0.3791"
"78.6600","7.9418","0.3800"
"79.0400","7.9735","0.3809"
"79.4200","8.0052","0.3816"
"79.8000","8.0368","0.3822"
"80.1800","8.0685","0.3830"
"80.5600","8.1002","0.3841"
"80.9400","8.1319","0.3845"
"81.3200","8.1635","0.3852"
"81.7000","8.1952","0.3862"
"82.0800","8.2269","0.3870"
"82.4600","8.2585","0.3875"
"82.8400","8.2901","0.3884"
"83.2200","8.3219","0.3892"
"83.6000","8.3535","0.3896"
"83.9800","8.3852","0.3906"
"84.3600","8.4168","0.3915"
"84.7400","8.4486","0.3917"
"85.1200","8.4801","0.3928"
"85.5000","8.5120","0.3938"
"85.8800","8.5434","0.3941"
"86.2600","8.5752","0.3941"
"86.6400","8.6069","0.3954"
"87.0200","8.6385","0.3960"
"87.4000","8.6701","0.3964"
"87.7800","8.7019","0.3971"
"88.1600","8.7336","0.3981"
"88.5400","8.7651","0.3986"
"88.9200","8.7969","0.3987"
"89.3000","8.8285","0.3997"
"89.6800","8.8601","0.4003"
"90.0600","8.8919","0.4013"
"90.4400","8.9236","0.4020"
"90.8200","8.9551","0.4026"
"91.2000","8.9869","0.4031"
"91.5800","9.0185","0.4038"
"91.9600","9.0501","0.4039"
"92.3400","9.0819","0.4046"
"92.7200","9.1134","0.4055"
"93.1000","9.1451","0.4061"
"93.4800","9.1768","0.4067"
"93.8600","9.2086","0.4074"
"94.2400","9.2401","0.4075"
"94.6200","9.2719","0.4078"
"95.0000","9.3035","0.4088"
"95.3800","9.3351","0.4094"
"95.7600","9.3668","0.4097"
"96.1400","9.3985","0.4099"
"96.5200","9.4301","0.4105"
"96.9000","9.4618","0.4107"
"97.2800","9.4936","0.4118"
"97.6600","9.5251","0.4117"
"98.0400","9.5569","0.4124"
"98.4200","9.5884","0.4126"
"98.8000","9.6202","0.4136"
"99.1800","9.6518","0.4139"
"99.5600","9.6835","0.4145"
"99.9400","9.7152","0.4146"
"100.3200","9.7469","0.4152"
"100.7000","9.7785","0.4159"
"101.0800","9.8101","0.4161"
"101.4600","9.8418","0.4156"
"101.8400","9.8735","0.4162"
"102.2200","9.9052","0.4164"
"102.6000","9.9368","0.4157"
"102.9800","9.9685","0.4155"
"103.3600","10.0003","0.4150"
"103.7400","10.0318","0.4148"
"104.1200","10.0635","0.4144"
"104.5000","10.0952","0.4122"
"104.8800","10.1268","0.4117"
"105.2600","10.1584","0.4110"
"105.6400","10.1903","0.4107"
"106.0200","10.2218","0.4076"
"106.4000","10.2535","0.4059"
"106.7800","10.2853","0.4050"
"107.1600","10.3169","0.4042"
"107.5400","10.3484","0.4035"
"107.9200","10.3802","0.4031"
"108.3000","10.4119","0.4027"
"108.6800","10.4434","0.4028"
"109.0600","10.4753","0.4023"
"109.4400","10.5069","0.3995"
"109.8200","10.5384","0.3967"
"110.2000","10.5703","0.3946"
"110.5800","10.6018","0.3911"
"110.9600","10.6334","0.3876"
"111.3400","10.6652","0.3848"
"111.7200","10.6969","0.3820"
"112.1000","10.7284","0.3793"
"112.4800","10.7603","0.3711"
"112.8600","10.7918","0.3057"
"113.2400","10.8235","0.1380"
"113.6200","10.8552","0.1157"
"113.9260","10.8807","0.1115"

File: ES100_Trevor_Flexural_Data_9_1.csv
Specimen text inputs : Specimen text input  1,,""

Results Table 1
,Specimen text input  1
"9","h0_f1"

Results Table 2

Time,Displacement,Force
(s),(mm),(kN)
"0.0000","0.5301","0.0202"
"0.2600","0.5505","0.0221"
"0.5200","0.5722","0.0243"
"0.7800","0.5939","0.0254"
"1.0400","0.6154","0.0276"
"1.3000","0.6373","0.0292"
"1.5600","0.6587","0.0305"
"1.8200","0.6804","0.0322"
"2.0800","0.7023","0.0341"
"2.3400","0.7239","0.0360"
"2.6000","0.7456","0.0374"
"2.8600","0.7671","0.0389"
"3.1200","0.7887","0.0408"
"3.3800","0.8105","0.0426"
"3.6400","0.8323","0.0440"
"3.9000","0.8538","0.0455"
"4.1600","0.8755","0.0470"
"4.4200","0.8972","0.0492"
"4.6800","0.9187","0.0505"
"4.9400","0.9406","0.0520"
"5.2000","0.9621","0.0541"
"5.4600","0.9839","0.0555"
"5.7200","1.0055","0.0568"
"5.9800","1.0271","0.0589"
"6.2400","1.0489","0.0607"
"6.5000","1.0706","0.0620"
"6.7600","1.0922","0.0640"
"7.0200","1.1137","0.0655"
"7.2800","1.1355","0.0675"
"7.5400","1.1571","0.0693"
"7.8000","1.1789","0.0710"
"8.0600","1.2006","0.0726"
"8.3200","1.2221","0.0744"
"8.5800","1.2439","0.0761"
"8.8400","1.2654","0.0779"
"9.1000","1.2871","0.0800"
"9.3600","1.3089","0.0818"
"9.6200","1.3305","0.0827"
"9.8800","1.3522","0.0846"
"10.1400","1.3737","0.0865"
"10.4000","1.3955","0.0882"
"10.6600","1.4171","0.0900"
"10.9200","1.4390","0.0915"
"11.1800","1.4605","0.0931"
"11.4400","1.4822","0.0951"
"11.7000","1.5038","0.0963"
"11.9600","1.5254","0.0982"
"12.2200","1.5473","0.1000"
"12.4800","1.5689","0.1015"
"12.7400","1.5905","0.1032"
"13.0000","1.6121","0.1049"
"13.2600","1.6338","0.1062"
"13.5200","1.6555","0.1079"
"13.7800","1.6772","0.1096"
"14.0400","1.6989","0.1112"
"14.3000","1.7205","0.1127"
"14.5600","1.7422","0.1148"
"14.8200","1.7638","0.1163"
"15.0800","1.7855","0.1174"
"15.3400","1.8073","0.1192"
"15.6000","1.8288","0.1205"
"15.8600","1.8505","0.1223"
"16.1200","1.8721","0.1241"
"16.3800","1.8939","0.1249"
"16.6400","1.9155","0.1267"
"16.9000","1.9371","0.1281"
"17.1600","1.9589","0.1294"
"17.4200","1.9804","0.1314"
"17.6800","2.0022","0.1327"
"17.9400","2.0239","0.1341"
"18.2000","2.0456","0.1355"
"18.4600","2.0673","0.1367"
"18.7200","2.0887","0.1389"
"18.9800","2.1105","0.1395"
"19.2400","2.1321","0.1415"
"19.5000","2.1539","0.1428"
"19.7600","2.1754","0.1442"
"20.0200","2.1972","0.1458"
"20.2800","2.2189","0.1468"
"20.5400","2.2404","0.1481"
"20.8000","2.2623","0.1495"
"21.0600","2.2839","0.1510"
"21.3200","2.3056","0.1523"
"21.5800","2.3271","0.1535"
"21.8400","2.3488","0.1552"
"22.1000","2.3705","0.1563"
"22.3600","2.3923","0.1576"
"22.6200","2.4138","0.1592"
"22.8800","2.4354","0.1606"
"23.1400","2.4573","0.1621"
"23.4000","2.4787","0.1633"
"23.6600","2.5006","0.1646"
"23.9200","2.5223","0.1661"
"24.1800","2.5438","0.1672"
"24.4400","2.5656","0.1685"
"24.7000","2.5871","0.1702"
"24.9600","2.6089","0.1709"
"25.2200","2.6306","0.1725"
"25.4800","2.6522","0.1740"
"25.7400","2.6739","0.1751"
"26.0000","2.6955","0.1766"
"26.2600","2.7171","0.1774"
"26.5200","2.7388","0.1794"
"26.7800","2.7607","0.1801"
"27.0400","2.7821","0.1812"
"27.3000","2.8038","0.1826"
"27.5600","2.8255","0.1837"
"27.8200","2.8471","0.1854"
"28.0800","2.8689","0.1862"
"28.3400","2.8904","0.1874"
"28.6000","2.9122","0.1887"
"28.8600","2.9338","0.1899"
"29.1200","2.9554","0.1911"
"29.3800","2.9771","0.1924"
"29.6400","2.9989","0.1936"
"29.9000","3.0206","0.1941"
"30.1600","3.0421","0.1957"
"30.4200","3.0639","0.1970"
"30.6800","3.0854","0.1983"
"30.9400","3.1072","0.1990"
"31.2000","3.1289","0.2006"
"31.4600","3.1504","0.2013"
"31.7200","3.1722","0.2030"
"31.9800","3.1937","0.2035"
"32.2400","3.2156","0.2047"
"32.5000","3.2372","0.2061"
"32.7600","3.2589","0.2072"
"33.0200","3.2806","0.2079"
"33.2800","3.3021","0.2092"
"33.5400","3.3239","0.2105"
"33.8000","3.3455","0.2113"
"34.0600","3.3672","0.2128"
"34.3200","3.3888","0.2134"
"34.5800","3.4105","0.2148"
"34.8400","3.4321","0.2157"
"35.1000","3.4538","0.2167"
"35.3600","3.4756","0.2178"
"35.6200","3.4972","0.2194"
"35.8800","3.5189","0.2200"
"36.1400","3.5405","0.2210"
"36.4000","3.5621","0.2219"
"36.6600","3.5839","0.2230"
"36.9200","3.6055","0.2238"
"37.1800","3.6272","0.2254"
"37.4400","3.6488","0.2257"
"37.7000","3.6705","0.2269"
"37.9600","3.6921","0.2278"
"38.2200","3.7139","0.2290"
"38.4800","3.7356","0.2295"
"38.7400","3.7573","0.2305"
"39.0000","3.7788","0.2318"
"39.2600","3.8004","0.2329"
"39.5200","3.8222","0.2339"
"39.7800","3.8439","0.2343"
"40.0400","3.8654","0.2355"
"40.3000","3.8872","0.2365"
"40.5600","3.9088","0.2375"
"40.8200","3.9304","0.2383"
"41.0800","3.9523","0.2394"
"41.3400","3.9739","0.2402"
"41.6000","3.9956","0.2411"
"41.8600","4.0171","0.2422"
"42.1200","4.0388","0.2430"
"42.3800","4.0604","0.2439"
"42.6400","4.0823","0.2446"
"42.9000","4.1038","0.2458"
"43.1600","4.1255","0.2464"
"43.4200","4.1472","0.2472"
"43.6800","4.1687","0.2477"
"43.9400","4.1906","0.2488"
"44.2000","4.2122","0.2497"
"44.4600","4.2339","0.2504"
"44.7200","4.2556","0.2508"
"44.9800","4.2771","0.2514"
"45.2400","4.2989","0.2531"
"45.5000","4.3206","0.2536"
"45.7600","4.3422","0.2547"
"46.0200","4.3637","0.2552"
"46.2800","4.3856","0.2558"
"46.5400","4.4071","0.2568"
"46.8000","4.4289","0.2575"
"47.0600","4.4506","0.2582"
"47.3200","4.4721","0.2585"
"47.5800","4.4939","0.2599"
"47.8400","4.5154","0.2608"
"48.1000","4.5372","0.2612"
"48.3600","4.5589","0.2620"
"48.6200","4.5804","0.2624"
"48.8800","4.6022","0.2635"
"49.1400","4.6238","0.2639"
"49.4000","4.6455","0.2645"
"49.6600","4.6671","0.2652"
"49.9200","4.6889","0.2662"
"50.1800","4.7105","0.2668"
"50.4400","4.7321","0.2675"
"50.7000","4.7539","0.2679"
"50.9600","4.7754","0.2687"
"51.2200","4.7972","0.2694"
"51.4800","4.8188","0.2702"
"51.7400","4.8405","0.2705"
"52.0000","4.8621","0.2711"
"52.2600","4.8838","0.2719"
"52.5200","4.9056","0.2732"
"52.7800","4.9272","0.2738"
"53.0400","4.9489","0.2745"
"53.3000","4.9705","0.2746"
"53.5600","4.9921","0.2755"
"53.8200","5.0138","0.2765"
"54.0800","5.0355","0.2768"
"54.3400","5.0572","0.2775"
"54.6000","5.0787","0.2783"
"54.8600","5.1006","0.2790"
"55.1200","5.1221","0.2799"
"55.3800","5.1439","0.2802"
"55.6400","5.1656","0.2807"
"55.9000","5.1871","0.2815"
"56.1600","5.2089","0.2819"
"56.4200","5.2304","0.2829"
"56.6800","5.2522","0.2832"
"56.9400","5.2739","0.2837"
"57.2000","5.2955","0.2843"
"57.4600","5.3172","0.2854"
"57.7200","5.3388","0.2857"
"57.9800","5.3604","0.2862"
"58.2400","5.3822","0.2864"
"58.5000","5.4039","0.2869"
"58.7600","5.4254","0.2872"
"59.0200","5.4472","0.2881"
"59.2800","5.4689","0.2884"
"59.5400","5.4904","0.2890"
"59.8000","5.5123","0.2897"
"60.0600","5.5338","0.2899"
"60.3200","5.5555","0.2906"
"60.5800","5.5771","0.2912"
"60.8400","5.5988","0.2919"
"61.1000","5.6205","0.2925"
"61.3600","5.6423","0.2929"
"61.6200","5.6638","0.2934"
"61.8800","5.6855","0.2936"
"62.1400","5.7073","0.2944"
"62.4000","5.7287","0.2948"
"62.6600","5.7506","0.2943"
"62.9200","5.7723","0.2949"
"63.1800","5.7938","0.2948"
"63.4400","5.8156","0.2921"
"63.7000","5.8371","0.2895"
"63.9600","5.8589","0.2888"
"64.2200","5.8806","0.2880"
"64.4800","5.9022","0.2870"
"64.7400","5.9239","0.2871"
"65.0000","5.9455","0.2865"
"65.2600","5.9671","0.2859"
"65.5200","5.9889","0.2845"
"65.7800","6.0107","0.2783"
"66.0400","6.0321","0.2761"
"66.3000","6.0538","0.2749"
"66.5600","6.0755","0.2723"
"66.8200","6.0971","0.2693"
"67.0800","6.1189","0.2666"
"67.3400","6.1405","0.2649"
"67.6000","6.1621","0.2640"
"67.8600","6.1839","0.2626"
"68.1200","6.2054","0.2617"
"68.3800","6.2271","0.2576"
"68.6400","6.2489","0.2534"
"68.9000","6.2706","0.2513"
"69.1600","6.2921","0.2503"
"69.4200","6.3138","0.2494"
"69.6800","6.3354","0.2485"
"69.9400","6.3572","0.2476"
"70.2000","6.3789","0.2467"
"70.4600","6.4004","0.2459"
"70.7200","6.4222","0.2454"
"70.9800","6.4437","0.2439"
"71.2400","6.4655","0.2424"
"71.5000","6.4873","0.2411"
"71.7600","6.5089","0.2377"
"72.0200","6.5306","0.2333"
"72.2800","6.5521","0.2259"
"72.5400","6.5739","0.1808"
"72.8000","6.5955","0.1717"
"73.0600","6.6172","0.1665"
"73.3200","6.6389","0.1619"
"73.5800","6.6605","0.1593"
"73.8400","6.6822","0.1571"
"74.1000","6.7038","0.1561"
"74.3600","6.7256","0.1546"
"74.6200","6.7472","0.1539"
"74.8800","6.7689","0.1529"
"75.1400","6.7904","0.1519"
"75.4000","6.8121","0.1515"
"75.6600","6.8339","0.1501"
"75.9200","6.8556","0.1496"
"76.1800","6.8772","0.1487"
"76.4400","6.8988","0.1480"
"76.7000","6.9204","0.1472"
"76.9600","6.9421","0.1469"
"77.2200","6.9638","0.1466"
"77.4800","6.9856","0.1454"
"77.7400","7.0072","0.1454"
"77.9500","7.0246","0.1447"