Folder: ts_t/flexural (part 6)

File: ES100_Trevor_Flexural_Data_16_1.csv
Specimen text inputs : Specimen text input  1,,""

Results Table 1
,Specimen text input  1
"16","bf_f2"

Results Table 2

Time,Displacement,Force
(s),(mm),(kN)
"0.0000","0.5600","0.0204"
"0.3800","0.5904","0.0273"
"0.7600","0.6221","0.0341"
"1.1400","0.6539","0.0401"
"1.5200","0.6855","0.0466"
"1.9000","0.7171","0.0536"
"2.2800","0.7489","0.0598"
"2.6600","0.7805","0.0669"
"3.0400","0.8121","0.0741"
"3.4200","0.8439","0.0810"
"3.8000","0.8755","0.0882"
"4.1800","0.9071","0.0954"
"4.5600","0.9389","0.1025"
"4.9400","0.9704","0.1096"
"5.3200","1.0022","0.1174"
"5.7000","1.0339","0.1242"
"6.0800","1.0655","0.1310"
"6.4600","1.0971","0.1385"
"6.8400","1.1290","0.1451"
"7.2200","1.1604","0.1525"
"7.6000","1.1921","0.1601"
"7.9800","1.2239","0.1671"
"8.3600","1.2555","0.1744"
"8.7400","1.2871","0.1813"
"9.1200","1.3189","0.1888"
"9.5000","1.3505","0.1960"
"9.8800","1.3821","0.2031"
"10.2600","1.4138","0.2100"
"10.6400","1.4455","0.2173"
"11.0200","1.4772","0.2244"
"11.4000","1.5089","0.2314"
"11.7800","1.5404","0.2384"
"12.1600","1.5723","0.2456"
"12.5400","1.6037","0.2524"
"12.9200","1.6355","0.2595"
"13.3000","1.6672","0.2668"
"13.6800","1.6989","0.2737"
"14.0600","1.7304","0.2809"
"14.4400","1.7623","0.2883"
"14.8200","1.7938","0.2952"
"15.2000","1.8255","0.3021"
"15.5800","1.8572","0.3093"
"15.9600","1.8889","0.3163"
"16.3400","1.9204","0.3235"
"16.7200","1.9522","0.3308"
"17.1000","1.9839","0.3371"
"17.4800","2.0154","0.3439"
"17.8600","2.0473","0.3511"
"18.2400","2.0788","0.3575"
"18.6200","2.1105","0.3642"
"19.0000","2.1423","0.3711"
"19.3800","2.1738","0.3783"
"19.7600","2.2054","0.3848"
"20.1400","2.2373","0.3920"
"20.5200","2.2689","0.3989"
"20.9000","2.3004","0.4059"
"21.2800","2.3323","0.4126"
"21.6600","2.3637","0.4197"
"22.0400","2.3955","0.4267"
"22.4200","2.4272","0.4334"
"22.8000","2.4589","0.4398"
"23.1800","2.4904","0.4468"
"23.5600","2.5223","0.4537"
"23.9400","2.5538","0.4602"
"24.3200","2.5854","0.4669"
"24.7000","2.6173","0.4735"
"25.0800","2.6489","0.4802"
"25.4600","2.6804","0.4869"
"25.8400","2.7122","0.4938"
"26.2200","2.7439","0.5003"
"26.6000","2.7754","0.5075"
"26.9800","2.8072","0.5140"
"27.3600","2.8388","0.5203"
"27.7400","2.8705","0.5270"
"28.1200","2.9021","0.5336"
"28.5000","2.9338","0.5406"
"28.8800","2.9656","0.5469"
"29.2600","2.9972","0.5531"
"29.6400","3.0288","0.5595"
"30.0200","3.0605","0.5659"
"30.4000","3.0922","0.5723"
"30.7800","3.1238","0.5788"
"31.1600","3.1555","0.5850"
"31.5400","3.1871","0.5914"
"31.9200","3.2188","0.5981"
"32.3000","3.2505","0.6043"
"32.6800","3.2822","0.6110"
"33.0600","3.3139","0.6176"
"33.4400","3.3455","0.6238"
"33.8200","3.3772","0.6297"
"34.2000","3.4088","0.6365"
"34.5800","3.4406","0.6425"
"34.9600","3.4721","0.6489"
"35.3400","3.5039","0.6548"
"35.7200","3.5355","0.6607"
"36.1000","3.5672","0.6674"
"36.4800","3.5988","0.6732"
"36.8600","3.6306","0.6791"
"37.2400","3.6621","0.6854"
"37.6200","3.6938","0.6917"
"38.0000","3.7256","0.6979"
"38.3800","3.7573","0.7036"
"38.7600","3.7887","0.7097"
"39.1400","3.8206","0.7161"
"39.5200","3.8521","0.7219"
"39.9000","3.8838","0.7280"
"40.2800","3.9155","0.7338"
"40.6600","3.9473","0.7400"
"41.0400","3.9788","0.7459"
"41.4200","4.0106","0.7517"
"41.8000","4.0421","0.7581"
"42.1800","4.0739","0.7637"
"42.5600","4.1055","0.7693"
"42.9400","4.1372","0.7755"
"43.3200","4.1687","0.7813"
"43.7000","4.2006","0.7872"
"44.0800","4.2321","0.7931"
"44.4600","4.2638","0.7991"
"44.8400","4.2956","0.8048"
"45.2200","4.3271","0.8109"
"45.6000","4.3589","0.8165"
"45.9800","4.3905","0.8221"
"46.3600","4.4222","0.8282"
"46.7400","4.4538","0.8340"
"47.1200","4.4856","0.8396"
"47.5000","4.5172","0.8458"
"47.8800","4.5488","0.8507"
"48.2600","4.5805","0.8563"
"48.6400","4.6122","0.8619"
"49.0200","4.6438","0.8676"
"49.4000","4.6754","0.8734"
"49.7800","4.7072","0.8786"
"50.1600","4.7388","0.8845"
"50.5400","4.7706","0.8900"
"50.9200","4.8021","0.8955"
"51.3000","4.8340","0.9016"
"51.6800","4.8654","0.9071"
"52.0600","4.8972","0.9133"
"52.4400","4.9289","0.9188"
"52.8200","4.9605","0.9245"
"53.2000","4.9921","0.9300"
"53.5800","5.0239","0.9356"
"53.9600","5.0556","0.9413"
"54.3400","5.0871","0.9471"
"54.7200","5.1189","0.9527"
"55.1000","5.1505","0.9580"
"55.4800","5.1821","0.9636"
"55.8600","5.2139","0.9694"
"56.2400","5.2456","0.9749"
"56.6200","5.2771","0.9804"
"57.0000","5.3089","0.9859"
"57.3800","5.3405","0.9914"
"57.7600","5.3721","0.9973"
"58.1400","5.4039","1.0027"
"58.5200","5.4354","1.0080"
"58.9000","5.4672","1.0135"
"59.2800","5.4989","1.0191"
"59.6600","5.5305","1.0248"
"60.0400","5.5621","1.0305"
"60.4200","5.5939","1.0365"
"60.8000","5.6255","1.0412"
"61.1800","5.6570","1.0470"
"61.5600","5.6890","1.0524"
"61.9400","5.7204","1.0577"
"62.3200","5.7521","1.0605"
"62.7000","5.7839","1.0655"
"63.0800","5.8156","1.0701"
"63.4600","5.8471","1.0741"
"63.8400","5.8789","1.0637"
"64.2200","5.9104","1.0680"
"64.6000","5.9421","1.0518"
"64.9800","5.9739","1.0554"
"65.3600","6.0056","1.0596"
"65.7400","6.0372","1.0642"
"66.1200","6.0688","1.0692"
"66.5000","6.1005","1.0744"
"66.8800","6.1322","1.0793"
"67.2600","6.1638","1.0843"
"67.6400","6.1954","1.0891"
"68.0200","6.2271","1.0942"
"68.4000","6.2589","1.0989"
"68.7800","6.2904","1.1039"
"69.1600","6.3223","1.1088"
"69.5400","6.3538","1.1137"
"69.9200","6.3856","1.1185"
"70.3000","6.4171","1.1177"
"70.6800","6.4489","1.1206"
"71.0600","6.4804","1.1250"
"71.4400","6.5123","1.1296"
"71.8200","6.5438","1.1339"
"72.2000","6.5756","1.1390"
"72.5800","6.6072","1.1432"
"72.9600","6.6388","1.1479"
"73.3400","6.6704","1.1524"
"73.7200","6.7023","1.1558"
"74.1000","6.7339","1.1601"
"74.4800","6.7654","1.1642"
"74.8600","6.7973","1.1651"
"75.2400","6.8288","1.1689"
"75.6200","6.8605","1.1678"
"76.0000","6.8923","1.1672"
"76.3800","6.9239","1.1712"
"76.7600","6.9554","1.1751"
"77.1400","6.9873","1.1787"
"77.5200","7.0189","1.1829"
"77.9000","7.0504","1.1736"
"78.2800","7.0823","1.1768"
"78.6600","7.1138","1.1811"
"79.0400","7.1454","1.1825"
"79.4200","7.1772","1.1865"
"79.8000","7.2089","1.1906"
"80.1800","7.2404","1.1950"
"80.5600","7.2723","1.1996"
"80.9400","7.3038","1.1980"
"81.3200","7.3354","1.2015"
"81.7000","7.3672","1.2045"
"82.0800","7.3988","1.1925"
"82.4600","7.4304","1.1926"
"82.8400","7.4622","1.1965"
"83.2200","7.4939","1.1999"
"83.6000","7.5254","1.2039"
"83.9800","7.5573","1.2083"
"84.3600","7.5887","1.2123"
"84.7400","7.6205","1.2167"
"85.1200","7.6522","1.2203"
"85.5000","7.6839","1.2224"
"85.8800","7.7155","1.2229"
"86.2600","7.7472","1.2259"
"86.6400","7.7789","1.2293"
"87.0200","7.8104","1.2328"
"87.4000","7.8422","1.2361"
"87.7800","7.8738","1.2372"
"88.1600","7.9056","1.2030"
"88.5400","7.9371","1.2014"
"88.9200","7.9688","1.2028"
"89.3000","8.0006","1.1858"
"89.6800","8.0321","1.1783"
"90.0600","8.0638","1.1755"
"90.4400","8.0956","1.1753"
"90.8200","8.1272","1.1756"
"91.2000","8.1588","1.1771"
"91.5800","8.1906","1.1790"
"91.9600","8.2222","1.1806"
"92.3400","8.2539","1.1829"
"92.7200","8.2856","1.1849"
"93.1000","8.3172","1.1879"
"93.4800","8.3488","1.1902"
"93.8600","8.3806","1.1928"
"94.2400","8.4122","1.1955"
"94.6200","8.4438","1.1984"
"95.0000","8.4756","1.2004"
"95.3800","8.5072","1.2029"
"95.7600","8.5387","1.2054"
"96.1400","8.5706","1.1946"
"96.5200","8.6022","1.1916"
"96.9000","8.6338","1.1915"
"97.2800","8.6656","1.1879"
"97.6600","8.6973","1.1819"
"98.0400","8.7288","1.1769"
"98.4200","8.7607","1.1753"
"98.8000","8.7921","1.1744"
"99.1800","8.8239","1.1700"
"99.5600","8.8556","1.1701"
"99.9400","8.8872","1.1713"
"100.3200","8.9187","1.1727"
"100.7000","8.9506","1.1735"
"101.0800","8.9822","1.1739"
"101.4600","9.0138","1.1725"
"101.8400","9.0455","1.1722"
"102.2200","9.0772","1.1729"
"102.6000","9.1088","1.1746"
"102.9800","9.1405","1.1757"
"103.3600","9.1722","1.1779"
"103.7400","9.2038","1.1796"
"104.1200","9.2355","1.1818"
"104.5000","9.2672","1.1839"
"104.8800","9.2989","1.1863"
"105.2600","9.3305","1.1734"
"105.6400","9.3621","1.1675"
"106.0200","9.3939","1.1643"
"106.4000","9.4254","1.1585"
"106.7800","9.4573","1.1504"
"107.1600","9.4889","1.1424"
"107.5400","9.5206","1.1343"
"107.9200","9.5521","1.1284"
"108.3000","9.5839","1.1264"
"108.6800","9.6155","1.1239"
"109.0600","9.6472","1.1080"
"109.4400","9.6788","1.0631"
"109.8200","9.7105","1.0552"
"110.2000","9.7422","1.0493"
"110.5800","9.7739","1.0360"
"110.7820","9.7909","0.5778"