Folder: ts_t/flexural (part 2)

File: ES100_Trevor_Flexural_Data_4_1.csv
Specimen text inputs : Specimen text input  1,,""

Results Table 1
,Specimen text input  1
"4","b45_f2"

Results Table 2

Time,Displacement,Force
(s),(mm),(kN)
"0.0000","1.6326","0.0202"
"0.3600","1.6614","0.0261"
"0.7200","1.6916","0.0313"
"1.0800","1.7215","0.0364"
"1.4400","1.7516","0.0413"
"1.8000","1.7815","0.0464"
"2.1600","1.8114","0.0516"
"2.5200","1.8415","0.0564"
"2.8800","1.8714","0.0624"
"3.2400","1.9014","0.0677"
"3.6000","1.9314","0.0729"
"3.9600","1.9615","0.0786"
"4.3200","1.9914","0.0837"
"4.6800","2.0216","0.0894"
"5.0400","2.0514","0.0944"
"5.4000","2.0816","0.0997"
"5.7600","2.1115","0.1056"
"6.1200","2.1416","0.1108"
"6.4800","2.1716","0.1163"
"6.8400","2.2016","0.1218"
"7.2000","2.2314","0.1269"
"7.5600","2.2616","0.1326"
"7.9200","2.2915","0.1379"
"8.2800","2.3216","0.1434"
"8.6400","2.3515","0.1486"
"9.0000","2.3816","0.1541"
"9.3600","2.4115","0.1592"
"9.7200","2.4415","0.1650"
"10.0800","2.4715","0.1705"
"10.4400","2.5015","0.1755"
"10.8000","2.5315","0.1808"
"11.1600","2.5614","0.1862"
"11.5200","2.5915","0.1919"
"11.8800","2.6214","0.1969"
"12.2400","2.6514","0.2023"
"12.6000","2.6814","0.2078"
"12.9600","2.7115","0.2134"
"13.3200","2.7414","0.2186"
"13.6800","2.7716","0.2240"
"14.0400","2.8014","0.2294"
"14.4000","2.8316","0.2344"
"14.7600","2.8615","0.2395"
"15.1200","2.8916","0.2451"
"15.4800","2.9215","0.2505"
"15.8400","2.9516","0.2557"
"16.2000","2.9814","0.2614"
"16.5600","3.0117","0.2665"
"16.9200","3.0414","0.2716"
"17.2800","3.0716","0.2769"
"17.6400","3.1015","0.2821"
"18.0000","3.1316","0.2879"
"18.3600","3.1614","0.2931"
"18.7200","3.1915","0.2985"
"19.0800","3.2215","0.3036"
"19.4400","3.2515","0.3090"
"19.8000","3.2816","0.3139"
"20.1600","3.3114","0.3193"
"20.5200","3.3415","0.3245"
"20.8800","3.3714","0.3298"
"21.2400","3.4014","0.3345"
"21.6000","3.4314","0.3397"
"21.9600","3.4615","0.3450"
"22.3200","3.4914","0.3497"
"22.6800","3.5216","0.3549"
"23.0400","3.5514","0.3601"
"23.4000","3.5816","0.3648"
"23.7600","3.6114","0.3701"
"24.1200","3.6416","0.3750"
"24.4800","3.6715","0.3803"
"24.8400","3.7016","0.3853"
"25.2000","3.7315","0.3904"
"25.5600","3.7617","0.3952"
"25.9200","3.7914","0.4000"
"26.2800","3.8216","0.4055"
"26.6400","3.8515","0.4106"
"27.0000","3.8816","0.4157"
"27.3600","3.9115","0.4204"
"27.7200","3.9415","0.4251"
"28.0800","3.9716","0.4307"
"28.4400","4.0016","0.4353"
"28.8000","4.0316","0.4402"
"29.1600","4.0614","0.4451"
"29.5200","4.0915","0.4496"
"29.8800","4.1214","0.4551"
"30.2400","4.1514","0.4594"
"30.6000","4.1814","0.4644"
"30.9600","4.2115","0.4690"
"31.3200","4.2414","0.4739"
"31.6800","4.2716","0.4790"
"32.0400","4.3014","0.4838"
"32.4000","4.3316","0.4886"
"32.7600","4.3614","0.4933"
"33.1200","4.3916","0.4985"
"33.4800","4.4215","0.5031"
"33.8400","4.4516","0.5081"
"34.2000","4.4815","0.5129"
"34.5600","4.5117","0.5176"
"34.9200","4.5415","0.5223"
"35.2800","4.5716","0.5274"
"35.6400","4.6015","0.5320"
"36.0000","4.6315","0.5364"
"36.3600","4.6615","0.5415"
"36.7200","4.6915","0.5459"
"37.0800","4.7214","0.5506"
"37.4400","4.7516","0.5554"
"37.8000","4.7815","0.5599"
"38.1600","4.8114","0.5642"
"38.5200","4.8415","0.5693"
"38.8800","4.8714","0.5735"
"39.2400","4.9014","0.5782"
"39.6000","4.9315","0.5826"
"39.9600","4.9615","0.5870"
"40.3200","4.9914","0.5918"
"40.6800","5.0216","0.5971"
"41.0400","5.0514","0.6015"
"41.4000","5.0815","0.6060"
"41.7600","5.1115","0.6104"
"42.1200","5.1416","0.6150"
"42.4800","5.1715","0.6199"
"42.8400","5.2016","0.6243"
"43.2000","5.2315","0.6288"
"43.5600","5.2617","0.6334"
"43.9200","5.2914","0.6378"
"44.2800","5.3216","0.6428"
"44.6400","5.3515","0.6470"
"45.0000","5.3815","0.6518"
"45.3600","5.4115","0.6562"
"45.7200","5.4415","0.6607"
"46.0800","5.4716","0.6652"
"46.4400","5.5015","0.6695"
"46.8000","5.5315","0.6740"
"47.1600","5.5614","0.6788"
"47.5200","5.5916","0.6832"
"47.8800","5.6214","0.6877"
"48.2400","5.6514","0.6923"
"48.6000","5.6815","0.6972"
"48.9600","5.7115","0.7015"
"49.3200","5.7415","0.7060"
"49.6800","5.7716","0.7106"
"50.0400","5.8014","0.7151"
"50.4000","5.8316","0.7196"
"50.7600","5.8616","0.7243"
"51.1200","5.8916","0.7284"
"51.4800","5.9216","0.7331"
"51.8400","5.9516","0.7372"
"52.2000","5.9814","0.7416"
"52.5600","6.0117","0.7462"
"52.9200","6.0414","0.7503"
"53.2800","6.0716","0.7545"
"53.6400","6.1015","0.7588"
"54.0000","6.1316","0.7631"
"54.3600","6.1615","0.7675"
"54.7200","6.1915","0.7716"
"55.0800","6.2215","0.7763"
"55.4400","6.2515","0.7803"
"55.8000","6.2816","0.7842"
"56.1600","6.3114","0.7886"
"56.5200","6.3415","0.7927"
"56.8800","6.3714","0.7973"
"57.2400","6.4014","0.8016"
"57.6000","6.4314","0.8058"
"57.9600","6.4614","0.8100"
"58.3200","6.4914","0.8141"
"58.6800","6.5216","0.8184"
"59.0400","6.5514","0.8227"
"59.4000","6.5816","0.8270"
"59.7600","6.6115","0.8311"
"60.1200","6.6415","0.8354"
"60.4800","6.6716","0.8400"
"60.8400","6.7016","0.8439"
"61.2000","6.7315","0.8482"
"61.5600","6.7616","0.8520"
"61.9200","6.7914","0.8556"
"62.2800","6.8216","0.8605"
"62.6400","6.8516","0.8646"
"63.0000","6.8816","0.8686"
"63.3600","6.9115","0.8725"
"63.7200","6.9415","0.8767"
"64.0800","6.9715","0.8811"
"64.4400","7.0015","0.8848"
"64.8000","7.0315","0.8891"
"65.1600","7.0614","0.8930"
"65.5200","7.0915","0.8974"
"65.8800","7.1214","0.9016"
"66.2400","7.1515","0.9054"
"66.6000","7.1814","0.9100"
"66.9600","7.2115","0.9143"
"67.3200","7.2414","0.9181"
"67.6800","7.2716","0.9223"
"68.0400","7.3014","0.9263"
"68.4000","7.3316","0.9304"
"68.7600","7.3614","0.9347"
"69.1200","7.3916","0.9385"
"69.4800","7.4216","0.9427"
"69.8400","7.4516","0.9469"
"70.2000","7.4815","0.9511"
"70.5600","7.5117","0.9550"
"70.9200","7.5414","0.9590"
"71.2800","7.5716","0.9629"
"71.6400","7.6015","0.9668"
"72.0000","7.6315","0.9708"
"72.3600","7.6615","0.9744"
"72.7200","7.6916","0.9787"
"73.0800","7.7215","0.9829"
"73.4400","7.7516","0.9868"
"73.8000","7.7816","0.9907"
"74.1600","7.8114","0.9950"
"74.5200","7.8415","0.9983"
"74.8800","7.8714","1.0026"
"75.2400","7.9014","1.0063"
"75.6000","7.9314","1.0101"
"75.9600","7.9615","1.0143"
"76.3200","7.9914","1.0181"
"76.6800","8.0216","1.0222"
"77.0400","8.0514","1.0263"
"77.4000","8.0816","1.0297"
"77.7600","8.1115","1.0339"
"78.1200","8.1416","1.0379"
"78.4800","8.1715","1.0416"
"78.8400","8.2016","1.0453"
"79.2000","8.2314","1.0490"
"79.5600","8.2617","1.0531"
"79.9200","8.2914","1.0566"
"80.2800","8.3216","1.0607"
"80.6400","8.3516","1.0645"
"81.0000","8.3815","1.0680"
"81.3600","8.4115","1.0716"
"81.7200","8.4415","1.0749"
"82.0800","8.4715","1.0788"
"82.4400","8.5016","1.0819"
"82.8000","8.5316","1.0857"
"83.1600","8.5614","1.0893"
"83.5200","8.5915","1.0929"
"83.8800","8.6214","1.0968"
"84.2400","8.6514","1.1001"
"84.6000","8.6814","1.1040"
"84.9600","8.7115","1.1073"
"85.3200","8.7414","1.1112"
"85.6800","8.7716","1.1151"
"86.0400","8.8014","1.1181"
"86.4000","8.8316","1.1205"
"86.7600","8.8615","1.1243"
"87.1200","8.8916","1.1274"
"87.4800","8.9216","1.1313"
"87.8400","8.9516","1.1347"
"88.2000","8.9815","1.1379"
"88.5600","9.0116","1.1412"
"88.9200","9.0415","1.1448"
"89.2800","9.0716","1.1491"
"89.6400","9.1015","1.1518"
"90.0000","9.1316","1.1557"
"90.3600","9.1615","1.1592"
"90.7200","9.1915","1.1627"
"91.0800","9.2214","1.1665"
"91.4400","9.2516","1.1703"
"91.8000","9.2815","1.1733"
"92.1600","9.3114","1.1765"
"92.5200","9.3415","1.1801"
"92.8800","9.3714","1.1835"
"93.2400","9.4014","1.1869"
"93.6000","9.4315","1.1904"
"93.9600","9.4615","1.1941"
"94.3200","9.4914","1.1974"
"94.6800","9.5216","1.2008"
"95.0400","9.5514","1.2040"
"95.4000","9.5816","1.2070"
"95.7600","9.6115","1.1976"
"96.1200","9.6416","1.2003"
"96.4800","9.6716","1.2032"
"96.8400","9.7016","1.1988"
"97.2000","9.7314","1.2013"
"97.5600","9.7616","1.2042"
"97.9200","9.7915","1.2078"
"98.2800","9.8216","1.1590"
"98.6400","9.8515","1.0575"
"99.0000","9.8816","1.0492"
"99.3600","9.9115","1.0458"
"99.7200","9.9415","1.0462"
"100.0800","9.9715","1.0474"
"100.4400","10.0016","0.9680"
"100.8000","10.0316","0.9465"
"101.1600","10.0614","0.9449"
"101.5200","10.0915","0.9457"
"101.8800","10.1214","0.9472"
"102.2400","10.1514","0.9492"
"102.6000","10.1814","0.9478"
"102.9600","10.2114","0.9470"
"103.3200","10.2415","0.9481"
"103.6800","10.2716","0.9504"
"104.0400","10.3014","0.9524"
"104.4000","10.3316","0.9546"
"104.7600","10.3615","0.9562"
"105.1200","10.3915","0.9584"
"105.2380","10.4013","0.9588"

File: ES100_Trevor_Flexural_Data_5_1.csv
Specimen text inputs : Specimen text input  1,,""

Results Table 1
,Specimen text input  1
"5","f0_f1"

Results Table 2

Time,Displacement,Force
(s),(mm),(kN)
"0.0000","1.3307","0.0202"
"0.4200","1.3644","0.0242"
"0.8400","1.3994","0.0267"
"1.2600","1.4345","0.0300"
"1.6800","1.4695","0.0333"
"2.1000","1.5045","0.0361"
"2.5200","1.5394","0.0395"
"2.9400","1.5745","0.0424"
"3.3600","1.6094","0.0457"
"3.7800","1.6445","0.0484"
"4.2000","1.6795","0.0521"
"4.6200","1.7145","0.0551"
"5.0400","1.7496","0.0583"
"5.4600","1.7846","0.0615"
"5.8800","1.8196","0.0643"
"6.3000","1.8545","0.0678"
"6.7200","1.8895","0.0710"
"7.1400","1.9245","0.0740"
"7.5600","1.9595","0.0774"
"7.9800","1.9946","0.0805"
"8.4000","2.0296","0.0836"
"8.8200","2.0646","0.0863"
"9.2400","2.0995","0.0895"
"9.6600","2.1345","0.0927"
"10.0800","2.1694","0.0951"
"10.5000","2.2044","0.0985"
"10.9200","2.2394","0.1016"
"11.3400","2.2745","0.1042"
"11.7600","2.3096","0.1077"
"12.1800","2.3446","0.1104"
"12.6000","2.3796","0.1130"
"13.0200","2.4145","0.1158"
"13.4400","2.4495","0.1188"
"13.8600","2.4846","0.1218"
"14.2800","2.5196","0.1244"
"14.7000","2.5545","0.1271"
"15.1200","2.5894","0.1296"
"15.5400","2.6244","0.1324"
"15.9600","2.6594","0.1352"
"16.3800","2.6945","0.1380"
"16.8000","2.7294","0.1403"
"17.2200","2.7644","0.1433"
"17.6400","2.7994","0.1456"
"18.0600","2.8346","0.1482"
"18.4800","2.8696","0.1507"
"18.9000","2.9046","0.1531"
"19.3200","2.9396","0.1555"
"19.7400","2.9746","0.1580"
"20.1600","3.0096","0.1607"
"20.5800","3.0445","0.1633"
"21.0000","3.0795","0.1653"
"21.4200","3.1144","0.1679"
"21.8400","3.1495","0.1703"
"22.2600","3.1844","0.1733"
"22.6800","3.2195","0.1751"
"23.1000","3.2545","0.1773"
"23.5200","3.2894","0.1799"
"23.9400","3.3245","0.1824"
"24.3600","3.3595","0.1848"
"24.7800","3.3945","0.1865"
"25.2000","3.4294","0.1891"
"25.6200","3.4646","0.1911"
"26.0400","3.4996","0.1935"
"26.4600","3.5346","0.1956"
"26.8800","3.5696","0.1980"
"27.3000","3.6044","0.2001"
"27.7200","3.6395","0.2021"
"28.1400","3.6745","0.2041"
"28.5600","3.7096","0.2066"
"28.9800","3.7446","0.2085"
"29.4000","3.7795","0.2108"
"29.8200","3.8146","0.2126"
"30.2400","3.8495","0.2149"
"30.6600","3.8845","0.2166"
"31.0800","3.9194","0.2186"
"31.5000","3.9544","0.2207"
"31.9200","3.9894","0.2229"
"32.3400","4.0245","0.2245"
"32.7600","4.0595","0.2264"
"33.1800","4.0946","0.2277"
"33.6000","4.1296","0.2303"
"34.0200","4.1645","0.2319"
"34.4400","4.1996","0.2338"
"34.8600","4.2345","0.2359"
"35.2800","4.2696","0.2375"
"35.7000","4.3045","0.2397"
"36.1200","4.3394","0.2412"
"36.5400","4.3744","0.2432"
"36.9600","4.4094","0.2452"
"37.3800","4.4445","0.2466"
"37.8000","4.4794","0.2483"
"38.2200","4.5144","0.2501"
"38.6400","4.5494","0.2516"
"39.0600","4.5846","0.2535"
"39.4800","4.6196","0.2551"
"39.9000","4.6546","0.2565"
"40.3200","4.6896","0.2581"
"40.7400","4.7246","0.2600"
"41.1600","4.7596","0.2615"
"41.5800","4.7944","0.2636"
"42.0000","4.8295","0.2647"
"42.4200","4.8644","0.2665"
"42.8400","4.8994","0.2677"
"43.2600","4.9345","0.2698"
"43.6800","4.9696","0.2713"
"44.1000","5.0046","0.2726"
"44.5200","5.0394","0.2745"
"44.9400","5.0745","0.2760"
"45.3600","5.1095","0.2775"
"45.7800","5.1445","0.2787"
"46.2000","5.1795","0.2807"
"46.6200","5.2145","0.2820"
"47.0400","5.2496","0.2834"
"47.4600","5.2846","0.2853"
"47.8800","5.3196","0.2865"
"48.3000","5.3544","0.2881"
"48.7200","5.3894","0.2898"
"49.1400","5.4245","0.2913"
"49.5600","5.4596","0.2926"
"49.9800","5.4946","0.2941"
"50.4000","5.5295","0.2956"
"50.8200","5.5646","0.2973"
"51.2400","5.5995","0.2985"
"51.6600","5.6345","0.2998"
"52.0800","5.6694","0.3013"
"52.5000","5.7044","0.3023"
"52.9200","5.7394","0.3042"
"53.3400","5.7745","0.3050"
"53.7600","5.8096","0.3066"
"54.1800","5.8446","0.3079"
"54.6000","5.8796","0.3091"
"55.0200","5.9146","0.3106"
"55.4400","5.9496","0.3116"
"55.8600","5.9845","0.3129"
"56.2800","6.0196","0.3139"
"56.7000","6.0545","0.3153"
"57.1200","6.0894","0.3167"
"57.5400","6.1245","0.3175"
"57.9600","6.1594","0.3186"
"58.3800","6.1944","0.3202"
"58.8000","6.2294","0.3210"
"59.2200","6.2644","0.3225"
"59.6400","6.2994","0.3236"
"60.0600","6.3345","0.3247"
"60.4800","6.3696","0.3257"
"60.9000","6.4046","0.3268"
"61.3200","6.4396","0.3280"
"61.7400","6.4746","0.3289"
"62.1600","6.5096","0.3299"
"62.5800","6.5445","0.3314"
"63.0000","6.5795","0.3322"
"63.4200","6.6144","0.3336"
"63.8400","6.6494","0.3346"
"64.2600","6.6844","0.3356"
"64.6800","6.7195","0.3366"
"65.1000","6.7546","0.3373"
"65.5200","6.7894","0.3386"
"65.9400","6.8245","0.3396"
"66.3600","6.8595","0.3408"
"66.7800","6.8945","0.3413"
"67.2000","6.9295","0.3428"
"67.6200","6.9645","0.3436"
"68.0400","6.9996","0.3445"
"68.4600","7.0346","0.3459"
"68.8800","7.0696","0.3467"
"69.3000","7.1044","0.3477"
"69.7200","7.1395","0.3486"
"70.1400","7.1745","0.3496"
"70.5600","7.2096","0.3506"
"70.9800","7.2446","0.3514"
"71.4000","7.2796","0.3528"
"71.8200","7.3146","0.3534"
"72.2400","7.3495","0.3543"
"72.6600","7.3844","0.3554"
"73.0800","7.4194","0.3564"
"73.5000","7.4544","0.3572"
"73.9200","7.4894","0.3583"
"74.3400","7.5245","0.3592"
"74.7600","7.5596","0.3601"
"75.1800","7.5946","0.3608"
"75.6000","7.6296","0.3616"
"76.0200","7.6645","0.3624"
"76.4400","7.6996","0.3633"
"76.8600","7.7346","0.3639"
"77.2800","7.7696","0.3652"
"77.7000","7.8045","0.3658"
"78.1200","7.8395","0.3670"
"78.5400","7.8745","0.3677"
"78.9600","7.9095","0.3683"
"79.3800","7.9444","0.3692"
"79.8000","7.9794","0.3700"
"80.2200","8.0144","0.3708"
"80.6400","8.0494","0.3715"
"81.0600","8.0846","0.3728"
"81.4800","8.1196","0.3731"
"81.9000","8.1546","0.3739"
"82.3200","8.1896","0.3747"
"82.7400","8.2246","0.3752"
"83.1600","8.2596","0.3762"
"83.5800","8.2944","0.3766"
"84.0000","8.3295","0.3772"
"84.4200","8.3645","0.3779"
"84.8400","8.3994","0.3787"
"85.2600","8.4345","0.3797"
"85.6800","8.4695","0.3801"
"86.1000","8.5046","0.3810"
"86.5200","8.5395","0.3817"
"86.9400","8.5745","0.3825"
"87.3600","8.6094","0.3830"
"87.7800","8.6445","0.3838"
"88.2000","8.6795","0.3844"
"88.6200","8.7146","0.3854"
"89.0400","8.7496","0.3858"
"89.4600","8.7846","0.3866"
"89.8800","8.8196","0.3874"
"90.3000","8.8545","0.3876"
"90.7200","8.8895","0.3887"
"91.1400","8.9245","0.3889"
"91.5600","8.9596","0.3898"
"91.9800","8.9946","0.3905"
"92.4000","9.0296","0.3912"
"92.8200","9.0646","0.3919"
"93.2400","9.0995","0.3924"
"93.6600","9.1345","0.3934"
"94.0800","9.1694","0.3937"
"94.5000","9.2044","0.3942"
"94.9200","9.2394","0.3949"
"95.3400","9.2745","0.3957"
"95.7600","9.3096","0.3965"
"96.1800","9.3446","0.3965"
"96.6000","9.3796","0.3971"
"97.0200","9.4145","0.3980"
"97.4400","9.4496","0.3982"
"97.8600","9.4846","0.3990"
"98.2800","9.5196","0.3996"
"98.7000","9.5545","0.3999"
"99.1200","9.5894","0.4004"
"99.5400","9.6245","0.4015"
"99.9600","9.6595","0.4017"
"100.3800","9.6944","0.4021"
"100.8000","9.7294","0.4027"
"101.2200","9.7644","0.4035"
"101.6400","9.7994","0.4040"
"102.0600","9.8346","0.4048"
"102.4800","9.8696","0.4048"
"102.9000","9.9046","0.4058"
"103.3200","9.9396","0.4061"
"103.7400","9.9746","0.4067"
"104.1600","10.0096","0.4069"
"104.5800","10.0445","0.4076"
"105.0000","10.0794","0.4080"
"105.4200","10.1145","0.4082"
"105.8400","10.1494","0.4086"
"106.2600","10.1844","0.4096"
"106.6800","10.2195","0.4100"
"107.1000","10.2545","0.4102"
"107.5200","10.2895","0.4110"
"107.9400","10.3245","0.4114"
"108.3600","10.3595","0.4116"
"108.7800","10.3945","0.4121"
"109.2000","10.4295","0.4125"
"109.6200","10.4646","0.4126"
"110.0400","10.4996","0.4128"
"110.4600","10.5346","0.4132"
"110.8800","10.5696","0.4136"
"111.3000","10.6044","0.4139"
"111.7200","10.6395","0.4149"
"112.1400","10.6745","0.4145"
"112.5600","10.7096","0.4154"
"112.9800","10.7446","0.4156"
"113.4000","10.7796","0.4157"
"113.8200","10.8146","0.4159"
"114.2400","10.8494","0.4160"
"114.6600","10.8844","0.4161"
"115.0800","10.9194","0.4165"
"115.5000","10.9544","0.4169"
"115.9200","10.9894","0.4172"
"116.3400","11.0245","0.4174"
"116.7600","11.0596","0.4180"
"117.1800","11.0946","0.4177"
"117.6000","11.1296","0.4156"
"118.0200","11.1645","0.4151"
"118.4400","11.1996","0.4143"
"118.8600","11.2346","0.4129"
"119.2800","11.2696","0.1312"
"119.7000","11.3045","0.1271"
"120.1200","11.3394","0.1256"
"120.5400","11.3744","0.1249"
"120.9600","11.4095","0.1231"
"121.3800","11.4444","0.1194"
"121.8000","11.4794","0.1164"
"122.2200","11.5144","0.1159"
"122.6400","11.5494","0.1144"
"122.6740","11.5522","0.1142"

File: ES100_Trevor_Flexural_Data_6_1.csv
Specimen text inputs : Specimen text input  1,,""

Results Table 1
,Specimen text input  1
"6","f0_f2"

Results Table 2

Time,Displacement,Force
(s),(mm),(kN)
"0.0000","1.3860","0.0202"
"0.4400","1.4214","0.0242"
"0.8800","1.4582","0.0271"
"1.3200","1.4949","0.0304"
"1.7600","1.5316","0.0332"
"2.2000","1.5682","0.0364"
"2.6400","1.6048","0.0401"
"3.0800","1.6416","0.0431"
"3.5200","1.6782","0.0461"
"3.9600","1.7149","0.0494"
"4.4000","1.7516","0.0525"
"4.8400","1.7881","0.0555"
"5.2800","1.8248","0.0590"
"5.7200","1.8615","0.0619"
"6.1600","1.8981","0.0653"
"6.6000","1.9348","0.0685"
"7.0400","1.9715","0.0719"
"7.4800","2.0083","0.0750"
"7.9200","2.0448","0.0782"
"8.3600","2.0816","0.0814"
"8.8000","2.1183","0.0847"
"9.2400","2.1549","0.0879"
"9.6800","2.1915","0.0910"
"10.1200","2.2281","0.0942"
"10.5600","2.2648","0.0970"
"11.0000","2.3014","0.1001"
"11.4400","2.3381","0.1031"
"11.8800","2.3748","0.1061"
"12.3200","2.4115","0.1088"
"12.7600","2.4482","0.1116"
"13.2000","2.4849","0.1149"
"13.6400","2.5216","0.1176"
"14.0800","2.5583","0.1204"
"14.5200","2.5949","0.1231"
"14.9600","2.6315","0.1260"
"15.4000","2.6681","0.1284"
"15.8400","2.7047","0.1316"
"16.2800","2.7414","0.1342"
"16.7200","2.7782","0.1367"
"17.1600","2.8149","0.1396"
"17.6000","2.8515","0.1424"
"18.0400","2.8882","0.1447"
"18.4800","2.9248","0.1470"
"18.9200","2.9615","0.1502"
"19.3600","2.9983","0.1524"
"19.8000","3.0349","0.1554"
"20.2400","3.0716","0.1574"
"20.6800","3.1082","0.1597"
"21.1200","3.1449","0.1625"
"21.5600","3.1814","0.1647"
"22.0000","3.2182","0.1672"
"22.4400","3.2549","0.1699"
"22.8800","3.2914","0.1720"
"23.3200","3.3282","0.1743"
"23.7600","3.3648","0.1769"
"24.2000","3.4014","0.1791"
"24.6400","3.4382","0.1817"
"25.0800","3.4749","0.1838"
"25.5200","3.5116","0.1861"
"25.9600","3.5482","0.1880"
"26.4000","3.5849","0.1906"
"26.8400","3.6214","0.1927"
"27.2800","3.6581","0.1950"
"27.7200","3.6948","0.1971"
"28.1600","3.7315","0.1996"
"28.6000","3.7682","0.2012"
"29.0400","3.8049","0.2037"
"29.4800","3.8416","0.2054"
"29.9200","3.8782","0.2074"
"30.3600","3.9149","0.2094"
"30.8000","3.9516","0.2120"
"31.2400","3.9882","0.2135"
"31.6800","4.0248","0.2157"
"32.1200","4.0614","0.2180"
"32.5600","4.0981","0.2196"
"33.0000","4.1348","0.2216"
"33.4400","4.1716","0.2238"
"33.8800","4.2083","0.2256"
"34.3200","4.2449","0.2277"
"34.7600","4.2815","0.2296"
"35.2000","4.3181","0.2310"
"35.6400","4.3548","0.2330"
"36.0800","4.3916","0.2346"
"36.5200","4.4282","0.2366"
"36.9600","4.4648","0.2385"
"37.4000","4.5015","0.2402"
"37.8400","4.5381","0.2418"
"38.2800","4.5748","0.2436"
"38.7200","4.6115","0.2456"
"39.1600","4.6481","0.2470"
"39.6000","4.6848","0.2491"
"40.0400","4.7215","0.2506"
"40.4800","4.7582","0.2524"
"40.9200","4.7948","0.2541"
"41.3600","4.8316","0.2554"
"41.8000","4.8683","0.2569"
"42.2400","4.9049","0.2589"
"42.6800","4.9415","0.2607"
"43.1200","4.9781","0.2622"
"43.5600","5.0148","0.2637"
"44.0000","5.0514","0.2650"
"44.4400","5.0881","0.2668"
"44.8800","5.1248","0.2684"
"45.3200","5.1615","0.2700"
"45.7600","5.1983","0.2717"
"46.2000","5.2349","0.2731"
"46.6400","5.2716","0.2747"
"47.0800","5.3083","0.2763"
"47.5200","5.3449","0.2776"
"47.9600","5.3815","0.2792"
"48.4000","5.4181","0.2805"
"48.8400","5.4548","0.2823"
"49.2800","5.4914","0.2837"
"49.7200","5.5282","0.2855"
"50.1600","5.5649","0.2871"
"50.6000","5.6015","0.2887"
"51.0400","5.6383","0.2900"
"51.4800","5.6748","0.2910"
"51.9200","5.7115","0.2925"
"52.3600","5.7482","0.2946"
"52.8000","5.7849","0.2957"
"53.2400","5.8216","0.2972"
"53.6800","5.8583","0.2985"
"54.1200","5.8948","0.3001"
"54.5600","5.9314","0.3011"
"55.0000","5.9682","0.3022"
"55.4400","6.0049","0.3036"
"55.8800","6.0415","0.3050"
"56.3200","6.0781","0.3064"
"56.7600","6.1148","0.3077"
"57.2000","6.1514","0.3088"
"57.6400","6.1882","0.3101"
"58.0800","6.2249","0.3113"
"58.5200","6.2617","0.3129"
"58.9600","6.2983","0.3132"
"59.4000","6.3348","0.3150"
"59.8400","6.3714","0.3163"
"60.2800","6.4081","0.3172"
"60.7200","6.4448","0.3187"
"61.1600","6.4815","0.3199"
"61.6000","6.5182","0.3209"
"62.0400","6.5549","0.3220"
"62.4800","6.5915","0.3232"
"62.9200","6.6282","0.3242"
"63.3600","6.6648","0.3252"
"63.8000","6.7016","0.3266"
"64.2400","6.7382","0.3275"
"64.6800","6.7748","0.3286"
"65.1200","6.8114","0.3300"
"65.5600","6.8481","0.3309"
"66.0000","6.8849","0.3320"
"66.4400","6.9215","0.3332"
"66.8800","6.9582","0.3337"
"67.3200","6.9949","0.3351"
"67.7600","7.0316","0.3366"
"68.2000","7.0682","0.3373"
"68.6400","7.1048","0.3384"
"69.0800","7.1416","0.3392"
"69.5200","7.1782","0.3402"
"69.9600","7.2149","0.3413"
"70.4000","7.2516","0.3425"
"70.8400","7.2881","0.3432"
"71.2800","7.3248","0.3444"
"71.7200","7.3614","0.3451"
"72.1600","7.3982","0.3462"
"72.6000","7.4348","0.3476"
"73.0400","7.4715","0.3484"
"73.4800","7.5082","0.3490"
"73.9200","7.5449","0.3501"
"74.3600","7.5816","0.3510"
"74.8000","7.6183","0.3524"
"75.2400","7.6549","0.3531"
"75.6800","7.6915","0.3537"
"76.1200","7.7281","0.3548"
"76.5600","7.7648","0.3558"
"77.0000","7.8014","0.3561"
"77.4400","7.8381","0.3576"
"77.8800","7.8748","0.3584"
"78.3200","7.9115","0.3591"
"78.7600","7.9483","0.3600"
"79.2000","7.9849","0.3609"
"79.6400","8.0216","0.3619"
"80.0800","8.0583","0.3624"
"80.5200","8.0949","0.3631"
"80.9600","8.1316","0.3645"
"81.4000","8.1681","0.3647"
"81.8400","8.2047","0.3656"
"82.2800","8.2414","0.3665"
"82.7200","8.2782","0.3672"
"83.1600","8.3149","0.3685"
"83.6000","8.3515","0.3692"
"84.0400","8.3882","0.3698"
"84.4800","8.4248","0.3704"
"84.9200","8.4615","0.3712"
"85.3600","8.4983","0.3720"
"85.8000","8.5349","0.3725"
"86.2400","8.5716","0.3735"
"86.6800","8.6082","0.3742"
"87.1200","8.6449","0.3754"
"87.5600","8.6815","0.3754"
"88.0000","8.7182","0.3760"
"88.4400","8.7549","0.3773"
"88.8800","8.7914","0.3776"
"89.3200","8.8281","0.3781"
"89.7600","8.8648","0.3791"
"90.2000","8.9015","0.3799"
"90.6400","8.9382","0.3804"
"91.0800","8.9749","0.3810"
"91.5200","9.0116","0.3819"
"91.9600","9.0483","0.3825"
"92.4000","9.0848","0.3835"
"92.8400","9.1214","0.3842"
"93.2800","9.1581","0.3845"
"93.7200","9.1948","0.3851"
"94.1600","9.2314","0.3862"
"94.6000","9.2682","0.3861"
"95.0400","9.3049","0.3872"
"95.4800","9.3415","0.3877"
"95.9200","9.3782","0.3883"
"96.3600","9.4149","0.3888"
"96.8000","9.4516","0.3898"
"97.2400","9.4882","0.3903"
"97.6800","9.5248","0.3912"
"98.1200","9.5614","0.3915"
"98.5600","9.5981","0.3917"
"99.0000","9.6348","0.3923"
"99.4400","9.6716","0.3935"
"99.8800","9.7083","0.3938"
"100.3200","9.7449","0.3948"
"100.7600","9.7816","0.3948"
"101.2000","9.8182","0.3953"
"101.6400","9.8548","0.3960"
"102.0800","9.8915","0.3965"
"102.5200","9.9282","0.3968"
"102.9600","9.9649","0.3980"
"103.4000","10.0016","0.3983"
"103.8400","10.0381","0.3989"
"104.2800","10.0748","0.3996"
"104.7200","10.1115","0.4000"
"105.1600","10.1481","0.4005"
"105.6000","10.1848","0.4010"
"106.0400","10.2215","0.4018"
"106.4800","10.2582","0.4023"
"106.9200","10.2949","0.4029"
"107.3600","10.3316","0.4036"
"107.8000","10.3683","0.4037"
"108.2400","10.4049","0.4044"
"108.6800","10.4415","0.4048"
"109.1200","10.4781","0.4054"
"109.5600","10.5148","0.4059"
"110.0000","10.5514","0.4065"
"110.4400","10.5881","0.4069"
"110.8800","10.6248","0.4074"
"111.3200","10.6615","0.4082"
"111.7600","10.6983","0.4080"
"112.2000","10.7349","0.4089"
"112.6400","10.7716","0.4085"
"113.0800","10.8083","0.4098"
"113.5200","10.8449","0.4103"
"113.9600","10.8816","0.4111"
"114.4000","10.9181","0.4107"
"114.8400","10.9548","0.4118"
"115.2800","10.9914","0.4121"
"115.7200","11.0282","0.4125"
"116.1600","11.0649","0.4126"
"116.6000","11.1016","0.4132"
"117.0400","11.1382","0.4134"
"117.4800","11.1748","0.4136"
"117.9200","11.2115","0.4140"
"118.3600","11.2482","0.4142"
"118.8000","11.2849","0.4143"
"119.2400","11.3216","0.4152"
"119.6800","11.3582","0.4150"
"120.1200","11.3948","0.4155"
"120.5600","11.4314","0.4156"
"121.0000","11.4681","0.4158"
"121.4400","11.5049","0.4165"
"121.8800","11.5415","0.4167"
"122.3200","11.5782","0.4166"
"122.7600","11.6148","0.4160"
"123.2000","11.6516","0.0331"
"123.6400","11.6881","0.0458"
"124.0800","11.7249","0.0461"
"124.5200","11.7617","0.0467"
"124.9600","11.7983","0.0468"
"125.4000","11.8349","0.0466"
"125.8400","11.8714","0.0470"
"126.2800","11.9081","0.0468"
"126.7200","11.9448","0.0470"
"127.1600","11.9815","0.0476"
"127.6000","12.0182","0.0472"
"128.0400","12.0549","0.0472"
"128.1240","12.0618","0.0472"