Folder: ts_t/flexural

File: ES100_Trevor_Flexural_Data_1_1.csv
Specimen text inputs : Specimen text input  1,,""

Results Table 1
,Specimen text input  1
"1","b0_f1"

Results Table 2

Time,Displacement,Force
(s),(mm),(kN)
"0.0000","7.4539","0.0203"
"0.4800","7.4928","0.0303"
"0.9600","7.5328","0.0396"
"1.4400","7.5729","0.0489"
"1.9200","7.6129","0.0582"
"2.4000","7.6528","0.0677"
"2.8800","7.6928","0.0772"
"3.3600","7.7328","0.0872"
"3.8400","7.7729","0.0968"
"4.3200","7.8129","0.1061"
"4.8000","7.8528","0.1164"
"5.2800","7.8928","0.1260"
"5.7600","7.9328","0.1353"
"6.2400","7.9727","0.1449"
"6.7200","8.0129","0.1546"
"7.2000","8.0529","0.1642"
"7.6800","8.0928","0.1741"
"8.1600","8.1329","0.1838"
"8.6400","8.1728","0.1930"
"9.1200","8.2128","0.2029"
"9.6000","8.2527","0.2122"
"10.0800","8.2928","0.2219"
"10.5600","8.3328","0.2313"
"11.0400","8.3729","0.2408"
"11.5200","8.4128","0.2504"
"12.0000","8.4529","0.2597"
"12.4800","8.4928","0.2694"
"12.9600","8.5328","0.2788"
"13.4400","8.5729","0.2883"
"13.9200","8.6129","0.2982"
"14.4000","8.6528","0.3073"
"14.8800","8.6928","0.3168"
"15.3600","8.7327","0.3261"
"15.8400","8.7729","0.3355"
"16.3200","8.8129","0.3450"
"16.8000","8.8528","0.3536"
"17.2800","8.8928","0.3631"
"17.7600","8.9329","0.3722"
"18.2400","8.9727","0.3814"
"18.7200","9.0129","0.3909"
"19.2000","9.0529","0.4002"
"19.6800","9.0927","0.4096"
"20.1600","9.1329","0.4189"
"20.6400","9.1728","0.4281"
"21.1200","9.2128","0.4370"
"21.6000","9.2528","0.4463"
"22.0800","9.2928","0.4549"
"22.5600","9.3328","0.4641"
"23.0400","9.3729","0.4730"
"23.5200","9.4127","0.4819"
"24.0000","9.4529","0.4915"
"24.4800","9.4928","0.5003"
"24.9600","9.5327","0.5093"
"25.4400","9.5729","0.5185"
"25.9200","9.6129","0.5274"
"26.4000","9.6528","0.5364"
"26.8800","9.6929","0.5452"
"27.3600","9.7328","0.5537"
"27.8400","9.7729","0.5627"
"28.3200","9.8128","0.5718"
"28.8000","9.8527","0.5800"
"29.2800","9.8928","0.5889"
"29.7600","9.9329","0.5977"
"30.2400","9.9727","0.6066"
"30.7200","10.0129","0.6154"
"31.2000","10.0529","0.6241"
"31.6800","10.0928","0.6330"
"32.1600","10.1329","0.6414"
"32.6400","10.1728","0.6500"
"33.1200","10.2128","0.6589"
"33.6000","10.2528","0.6672"
"34.0800","10.2928","0.6758"
"34.5600","10.3329","0.6841"
"35.0400","10.3729","0.6928"
"35.5200","10.4128","0.7011"
"36.0000","10.4529","0.7096"
"36.4800","10.4928","0.7185"
"36.9600","10.5328","0.7268"
"37.4400","10.5729","0.7350"
"37.9200","10.6129","0.7435"
"38.4000","10.6528","0.7521"
"38.8800","10.6928","0.7604"
"39.3600","10.7327","0.7688"
"39.8400","10.7729","0.7767"
"40.3200","10.8128","0.7853"
"40.8000","10.8528","0.7934"
"41.2800","10.8928","0.8021"
"41.7600","10.9329","0.8106"
"42.2400","10.9727","0.8185"
"42.7200","11.0129","0.8270"
"43.2000","11.0529","0.8350"
"43.6800","11.0928","0.8437"
"44.1600","11.1329","0.8514"
"44.6400","11.1728","0.8599"
"45.1200","11.2129","0.8683"
"45.6000","11.2528","0.8760"
"46.0800","11.2928","0.8843"
"46.5600","11.3328","0.8921"
"47.0400","11.3729","0.9003"
"47.5200","11.4127","0.9091"
"48.0000","11.4529","0.9171"
"48.4800","11.4928","0.9255"
"48.9600","11.5328","0.9332"
"49.4400","11.5729","0.9415"
"49.9200","11.6129","0.9498"
"50.4000","11.6528","0.9577"
"50.8800","11.6929","0.9658"
"51.3600","11.7328","0.9739"
"51.8400","11.7729","0.9821"
"52.3200","11.8128","0.9904"
"52.8000","11.8528","0.9985"
"53.2800","11.8928","1.0066"
"53.7600","11.9329","1.0149"
"54.2400","11.9727","1.0228"
"54.7200","12.0129","1.0314"
"55.2000","12.0529","1.0396"
"55.6800","12.0927","1.0478"
"56.1600","12.1329","1.0557"
"56.6400","12.1728","1.0636"
"57.1200","12.2128","1.0719"
"57.6000","12.2528","1.0799"
"58.0800","12.2928","1.0879"
"58.5600","12.3328","1.0958"
"59.0400","12.3729","1.1035"
"59.5200","12.4128","1.1116"
"60.0000","12.4529","1.1195"
"60.4800","12.4928","1.1272"
"60.9600","12.5328","1.1351"
"61.4400","12.5729","1.1425"
"61.9200","12.6129","1.1504"
"62.4000","12.6527","1.1582"
"62.8800","12.6928","1.1654"
"63.3600","12.7327","1.1733"
"63.8400","12.7729","1.1808"
"64.3200","12.8128","1.1889"
"64.8000","12.8528","1.1963"
"65.2800","12.8928","1.2039"
"65.7600","12.9329","1.2114"
"66.2400","12.9727","1.2188"
"66.7200","13.0129","1.2269"
"67.2000","13.0529","1.2342"
"67.6800","13.0928","1.2427"
"68.1600","13.1329","1.2482"
"68.6400","13.1729","1.2555"
"69.1200","13.2129","1.2624"
"69.6000","13.2527","1.2705"
"70.0800","13.2927","1.2774"
"70.5600","13.3328","1.2853"
"71.0400","13.3729","1.2925"
"71.5200","13.4127","1.2998"
"72.0000","13.4528","1.3072"
"72.4800","13.4928","1.3146"
"72.9600","13.5328","1.3217"
"73.4400","13.5729","1.3293"
"73.9200","13.6129","1.3365"
"74.4000","13.6527","1.3437"
"74.8800","13.6928","1.3513"
"75.3600","13.7327","1.3583"
"75.8400","13.7729","1.3658"
"76.3200","13.8128","1.3604"
"76.8000","13.8528","1.3662"
"77.2800","13.8929","1.3732"
"77.7600","13.9329","1.3797"
"78.2400","13.9727","1.3861"
"78.7200","14.0129","1.3935"
"79.2000","14.0529","1.4002"
"79.6800","14.0928","1.4074"
"80.1600","14.1329","1.4140"
"80.6400","14.1728","1.4210"
"81.1200","14.2128","1.4280"
"81.6000","14.2528","1.4347"
"82.0800","14.2928","1.4421"
"82.5600","14.3329","1.4489"
"83.0400","14.3729","1.4558"
"83.5200","14.4127","1.4622"
"84.0000","14.4529","1.4696"
"84.4800","14.4928","1.4764"
"84.9600","14.5327","1.4830"
"85.4400","14.5729","1.4898"
"85.9200","14.6129","1.4776"
"86.4000","14.6528","1.4737"
"86.8800","14.6929","1.4690"
"87.3600","14.7327","1.4728"
"87.8400","14.7729","1.4675"
"88.3200","14.8128","1.4656"
"88.8000","14.8528","1.4581"
"89.2800","14.8928","1.4639"
"89.7600","14.9328","1.4363"
"90.2400","14.9727","1.4318"
"90.7200","15.0129","1.4176"
"91.2000","15.0529","1.4132"
"91.6800","15.0927","1.4090"
"92.1600","15.1329","1.3909"
"92.6400","15.1728","1.3852"
"93.1200","15.2128","1.3836"
"93.6000","15.2528","1.3829"
"94.0800","15.2928","1.3857"
"94.5600","15.3328","1.2882"
"95.0400","15.3729","1.2789"
"95.5200","15.4128","1.2654"
"96.0000","15.4529","1.2502"
"96.4800","15.4928","1.2392"
"96.9600","15.5328","1.2345"
"97.4400","15.5729","1.2314"
"97.9200","15.6129","1.2333"
"98.4000","15.6528","1.2097"
"98.8800","15.6928","1.2032"
"99.3600","15.7328","1.1997"
"99.8400","15.7729","1.2000"
"100.3200","15.8129","1.1887"
"100.8000","15.8528","1.1724"
"101.2800","15.8928","1.1680"
"101.7600","15.9328","1.1497"
"102.2400","15.9727","1.1274"
"102.7200","16.0128","1.1160"
"103.2000","16.0529","1.1081"
"103.6800","16.0928","1.1074"
"104.1600","16.1328","1.1047"
"104.6400","16.1728","1.1014"
"105.1200","16.2128","1.1004"
"105.6000","16.2528","1.1000"
"106.0800","16.2928","1.1018"
"106.5600","16.3328","1.1040"
"107.0400","16.3728","1.1048"
"107.5200","16.4128","1.1063"
"108.0000","16.4529","1.1088"
"108.4800","16.4928","1.1113"
"108.9600","16.5327","1.1140"
"109.4400","16.5729","1.1167"
"109.9200","16.6129","1.1196"
"110.4000","16.6528","1.1221"
"110.8800","16.6928","1.1246"
"111.3600","16.7327","1.1267"
"111.8400","16.7729","1.1197"
"112.3200","16.8128","1.1164"
"112.8000","16.8528","1.1140"
"113.2800","16.8928","1.1065"
"113.7600","16.9328","1.1035"
"114.2400","16.9727","1.1017"
"114.7200","17.0129","1.0992"
"115.2000","17.0529","1.0986"
"115.6800","17.0928","1.0962"
"116.1600","17.1329","1.0958"
"116.6400","17.1728","1.0959"
"117.1200","17.2128","1.0940"
"117.6000","17.2528","1.0884"
"118.0800","17.2928","1.0876"
"118.5600","17.3329","1.0877"
"119.0400","17.3729","1.0886"
"119.5200","17.4128","1.0895"
"120.0000","17.4529","1.0901"
"120.4800","17.4928","1.0905"
"120.9600","17.5328","1.0909"
"121.4400","17.5729","1.0897"
"121.9200","17.6129","1.0897"
"122.4000","17.6528","1.0879"
"122.8800","17.6928","1.0801"
"123.3600","17.7327","1.0794"
"123.8400","17.7729","1.0050"
"124.3200","17.8129","0.7751"
"124.8000","17.8528","0.5441"
"125.2800","17.8928","0.4860"
"125.7600","17.9329","0.4597"
"126.2400","17.9727","0.4581"
"126.7200","18.0129","0.4566"
"127.2000","18.0529","0.4449"
"127.6800","18.0928","0.4420"
"128.1600","18.1329","0.4418"
"128.6400","18.1729","0.4419"
"129.1200","18.2129","0.4416"
"129.6000","18.2528","0.4408"
"130.0800","18.2928","0.4341"
"130.5600","18.3328","0.4301"
"131.0400","18.3729","0.4249"
"131.5200","18.4128","0.4204"
"132.0000","18.4529","0.4105"
"132.4800","18.4928","0.4072"
"132.9600","18.5328","0.4044"
"133.4400","18.5729","0.4029"
"133.9200","18.6129","0.4030"
"134.4000","18.6527","0.4004"
"134.8800","18.6928","0.4009"
"135.3600","18.7327","0.4010"
"135.8400","18.7729","0.4004"
"136.3200","18.8128","0.4006"
"136.8000","18.8528","0.4006"
"137.2800","18.8929","0.3915"
"137.7600","18.9329","0.3899"
"137.9940","18.9524","0.3890"

File: ES100_Trevor_Flexural_Data_2_1.csv
Specimen text inputs : Specimen text input  1,,""

Results Table 1
,Specimen text input  1
"2","b0_f2"

Results Table 2

Time,Displacement,Force
(s),(mm),(kN)
"0.0000","1.2966","0.0203"
"0.3200","1.3222","0.0261"
"0.6400","1.3488","0.0306"
"0.9600","1.3754","0.0357"
"1.2800","1.4021","0.0408"
"1.6000","1.4288","0.0461"
"1.9200","1.4554","0.0507"
"2.2400","1.4821","0.0559"
"2.5600","1.5088","0.0607"
"2.8800","1.5355","0.0660"
"3.2000","1.5620","0.0715"
"3.5200","1.5888","0.0764"
"3.8400","1.6154","0.0816"
"4.1600","1.6422","0.0866"
"4.4800","1.6687","0.0921"
"4.8000","1.6954","0.0971"
"5.1200","1.7221","0.1026"
"5.4400","1.7489","0.1076"
"5.7600","1.7754","0.1129"
"6.0800","1.8021","0.1187"
"6.4000","1.8287","0.1233"
"6.7200","1.8555","0.1285"
"7.0400","1.8821","0.1342"
"7.3600","1.9087","0.1394"
"7.6800","1.9354","0.1446"
"8.0000","1.9621","0.1498"
"8.3200","1.9888","0.1554"
"8.6400","2.0154","0.1609"
"8.9600","2.0421","0.1660"
"9.2800","2.0688","0.1716"
"9.6000","2.0954","0.1768"
"9.9200","2.1220","0.1822"
"10.2400","2.1488","0.1875"
"10.5600","2.1754","0.1928"
"10.8800","2.2021","0.1988"
"11.2000","2.2287","0.2038"
"11.5200","2.2555","0.2092"
"11.8400","2.2821","0.2146"
"12.1600","2.3089","0.2199"
"12.4800","2.3354","0.2250"
"12.8000","2.3621","0.2306"
"13.1200","2.3888","0.2359"
"13.4400","2.4155","0.2414"
"13.7600","2.4421","0.2469"
"14.0800","2.4689","0.2522"
"14.4000","2.4956","0.2577"
"14.7200","2.5223","0.2627"
"15.0400","2.5488","0.2683"
"15.3600","2.5755","0.2733"
"15.6800","2.6021","0.2791"
"16.0000","2.6288","0.2847"
"16.3200","2.6555","0.2899"
"16.6400","2.6821","0.2955"
"16.9600","2.7089","0.3009"
"17.2800","2.7356","0.3062"
"17.6000","2.7623","0.3114"
"17.9200","2.7888","0.3172"
"18.2400","2.8155","0.3223"
"18.5600","2.8421","0.3276"
"18.8800","2.8689","0.3328"
"19.2000","2.8954","0.3381"
"19.5200","2.9222","0.3434"
"19.8400","2.9489","0.3486"
"20.1600","2.9756","0.3539"
"20.4800","3.0021","0.3594"
"20.8000","3.0288","0.3648"
"21.1200","3.0555","0.3698"
"21.4400","3.0822","0.3753"
"21.7600","3.1088","0.3804"
"22.0800","3.1356","0.3857"
"22.4000","3.1621","0.3914"
"22.7200","3.1889","0.3967"
"23.0400","3.2155","0.4021"
"23.3600","3.2421","0.4077"
"23.6800","3.2689","0.4130"
"24.0000","3.2955","0.4184"
"24.3200","3.3222","0.4240"
"24.6400","3.3487","0.4289"
"24.9600","3.3754","0.4339"
"25.2800","3.4021","0.4393"
"25.6000","3.4288","0.4446"
"25.9200","3.4554","0.4498"
"26.2400","3.4821","0.4550"
"26.5600","3.5088","0.4604"
"26.8800","3.5355","0.4650"
"27.2000","3.5620","0.4708"
"27.5200","3.5888","0.4757"
"27.8400","3.6154","0.4812"
"28.1600","3.6422","0.4865"
"28.4800","3.6687","0.4917"
"28.8000","3.6954","0.4974"
"29.1200","3.7221","0.5026"
"29.4400","3.7489","0.5077"
"29.7600","3.7754","0.5127"
"30.0800","3.8021","0.5181"
"30.4000","3.8287","0.5228"
"30.7200","3.8554","0.5281"
"31.0400","3.8821","0.5336"
"31.3600","3.9088","0.5390"
"31.6800","3.9354","0.5439"
"32.0000","3.9621","0.5491"
"32.3200","3.9888","0.5543"
"32.6400","4.0154","0.5592"
"32.9600","4.0421","0.5642"
"33.2800","4.0688","0.5688"
"33.6000","4.0954","0.5741"
"33.9200","4.1221","0.5789"
"34.2400","4.1487","0.5849"
"34.5600","4.1754","0.5893"
"34.8800","4.2022","0.5949"
"35.2000","4.2287","0.5999"
"35.5200","4.2556","0.6050"
"35.8400","4.2821","0.6096"
"36.1600","4.3089","0.6150"
"36.4800","4.3354","0.6200"
"36.8000","4.3621","0.6251"
"37.1200","4.3888","0.6300"
"37.4400","4.4155","0.6349"
"37.7600","4.4421","0.6404"
"38.0800","4.4688","0.6451"
"38.4000","4.4956","0.6499"
"38.7200","4.5223","0.6549"
"39.0400","4.5488","0.6599"
"39.3600","4.5755","0.6652"
"39.6800","4.6021","0.6699"
"40.0000","4.6289","0.6750"
"40.3200","4.6556","0.6795"
"40.6400","4.6821","0.6845"
"40.9600","4.7089","0.6898"
"41.2800","4.7355","0.6940"
"41.6000","4.7622","0.6996"
"41.9200","4.7887","0.7045"
"42.2400","4.8155","0.7092"
"42.5600","4.8421","0.7143"
"42.8800","4.8689","0.7189"
"43.2000","4.8954","0.7239"
"43.5200","4.9223","0.7289"
"43.8400","4.9489","0.7338"
"44.1600","4.9756","0.7385"
"44.4800","5.0021","0.7440"
"44.8000","5.0289","0.7488"
"45.1200","5.0555","0.7532"
"45.4400","5.0822","0.7584"
"45.7600","5.1088","0.7628"
"46.0800","5.1355","0.7679"
"46.4000","5.1621","0.7724"
"46.7200","5.1889","0.7777"
"47.0400","5.2155","0.7821"
"47.3600","5.2421","0.7873"
"47.6800","5.2688","0.7920"
"48.0000","5.2955","0.7965"
"48.3200","5.3222","0.8017"
"48.6400","5.3487","0.8063"
"48.9600","5.3754","0.8111"
"49.2800","5.4021","0.8159"
"49.6000","5.4288","0.8210"
"49.9200","5.4554","0.8257"
"50.2400","5.4821","0.8303"
"50.5600","5.5089","0.8352"
"50.8800","5.5354","0.8394"
"51.2000","5.5621","0.8447"
"51.5200","5.5888","0.8493"
"51.8400","5.6153","0.8540"
"52.1600","5.6422","0.8586"
"52.4800","5.6687","0.8635"
"52.8000","5.6955","0.8682"
"53.1200","5.7221","0.8727"
"53.4400","5.7488","0.8771"
"53.7600","5.7754","0.8818"
"54.0800","5.8020","0.8864"
"54.4000","5.8288","0.8912"
"54.7200","5.8555","0.8958"
"55.0400","5.8821","0.8999"
"55.3600","5.9088","0.9050"
"55.6800","5.9354","0.9096"
"56.0000","5.9621","0.9146"
"56.3200","5.9888","0.9196"
"56.6400","6.0153","0.9238"
"56.9600","6.0421","0.9284"
"57.2800","6.0687","0.9330"
"57.6000","6.0955","0.9373"
"57.9200","6.1221","0.9422"
"58.2400","6.1488","0.9468"
"58.5600","6.1754","0.9516"
"58.8800","6.2021","0.9563"
"59.2000","6.2287","0.9605"
"59.5200","6.2556","0.9648"
"59.8400","6.2821","0.9693"
"60.1600","6.3089","0.9744"
"60.4800","6.3354","0.9789"
"60.8000","6.3621","0.9830"
"61.1200","6.3888","0.9880"
"61.4400","6.4155","0.9923"
"61.7600","6.4421","0.9972"
"62.0800","6.4688","1.0015"
"62.4000","6.4956","1.0060"
"62.7200","6.5223","1.0105"
"63.0400","6.5488","1.0145"
"63.3600","6.5755","1.0190"
"63.6800","6.6021","1.0243"
"64.0000","6.6289","1.0282"
"64.3200","6.6555","1.0331"
"64.6400","6.6822","1.0376"
"64.9600","6.7089","1.0418"
"65.2800","6.7356","1.0466"
"65.6000","6.7622","1.0488"
"65.9200","6.7888","1.0531"
"66.2400","6.8155","1.0571"
"66.5600","6.8421","1.0615"
"66.8800","6.8689","1.0662"
"67.2000","6.8954","1.0703"
"67.5200","6.9222","1.0744"
"67.8400","6.9489","1.0768"
"68.1600","6.9756","1.0808"
"68.4800","7.0021","1.0851"
"68.8000","7.0288","1.0896"
"69.1200","7.0555","1.0932"
"69.4400","7.0823","1.0973"
"69.7600","7.1088","1.1019"
"70.0800","7.1355","1.0983"
"70.4000","7.1621","1.1018"
"70.7200","7.1889","1.1056"
"71.0400","7.2155","1.1091"
"71.3600","7.2421","1.1123"
"71.6800","7.2689","1.1142"
"72.0000","7.2955","1.1182"
"72.3200","7.3222","1.1221"
"72.6400","7.3487","1.1261"
"72.9600","7.3755","1.1298"
"73.2800","7.4021","1.1340"
"73.6000","7.4288","1.1333"
"73.9200","7.4554","1.1370"
"74.2400","7.4821","1.1353"
"74.5600","7.5089","1.1383"
"74.8800","7.5355","1.1417"
"75.2000","7.5621","1.1456"
"75.5200","7.5887","1.1495"
"75.8400","7.6154","1.1534"
"76.1600","7.6422","1.1571"
"76.4800","7.6686","1.1612"
"76.8000","7.6955","1.1651"
"77.1200","7.7221","1.1668"
"77.4400","7.7488","1.1704"
"77.7600","7.7754","1.1743"
"78.0800","7.8021","1.1782"
"78.4000","7.8288","1.1824"
"78.7200","7.8555","1.1864"
"79.0400","7.8821","1.1904"
"79.3600","7.9088","1.1944"
"79.6800","7.9354","1.1981"
"80.0000","7.9622","1.2006"
"80.3200","7.9887","1.2046"
"80.6400","8.0154","1.2080"
"80.9600","8.0421","1.2117"
"81.2800","8.0688","1.2161"
"81.6000","8.0955","1.2199"
"81.9200","8.1221","1.2234"
"82.2400","8.1488","1.2280"
"82.5600","8.1754","1.2317"
"82.8800","8.2021","1.2358"
"83.2000","8.2287","1.2395"
"83.5200","8.2554","1.2420"
"83.8400","8.2821","1.2371"
"84.1600","8.3088","1.2328"
"84.4800","8.3354","1.2352"
"84.8000","8.3622","1.2375"
"85.1200","8.3888","1.2408"
"85.4400","8.4155","1.2440"
"85.7600","8.4422","1.2468"
"86.0800","8.4689","1.1254"
"86.4000","8.4956","1.0818"
"86.7200","8.5222","1.0719"
"87.0400","8.5488","0.9881"
"87.3600","8.5755","0.9823"
"87.6800","8.6021","0.9820"
"88.0000","8.6289","0.9831"
"88.3200","8.6555","0.9840"
"88.6400","8.6821","0.9853"
"88.9600","8.7089","0.9772"
"89.2800","8.7356","0.9583"
"89.6000","8.7623","0.9559"
"89.9200","8.7887","0.9561"
"90.2400","8.8156","0.9317"
"90.5600","8.8421","0.9273"
"90.8800","8.8689","0.9259"
"91.2000","8.8954","0.9263"
"91.5200","8.9222","0.9274"
"91.8400","8.9488","0.9289"
"92.1600","8.9756","0.9305"
"92.4800","9.0021","0.9324"
"92.8000","9.0289","0.9344"
"93.1200","9.0555","0.9361"
"93.4400","9.0823","0.9353"
"93.7600","9.1088","0.9368"
"93.9220","9.1223","0.9372"

File: ES100_Trevor_Flexural_Data_3_1.csv
Specimen text inputs : Specimen text input  1,,""

Results Table 1
,Specimen text input  1
"3","b45_f1"

Results Table 2

Time,Displacement,Force
(s),(mm),(kN)
"0.0000","1.6673","0.0202"
"0.3400","1.6944","0.0249"
"0.6800","1.7228","0.0291"
"1.0200","1.7512","0.0335"
"1.3600","1.7795","0.0377"
"1.7000","1.8079","0.0420"
"2.0400","1.8361","0.0460"
"2.3800","1.8644","0.0505"
"2.7200","1.8929","0.0548"
"3.0600","1.9211","0.0595"
"3.4000","1.9496","0.0640"
"3.7400","1.9778","0.0691"
"4.0800","2.0063","0.0730"
"4.4200","2.0346","0.0777"
"4.7600","2.0628","0.0824"
"5.1000","2.0912","0.0868"
"5.4400","2.1196","0.0906"
"5.7800","2.1478","0.0959"
"6.1200","2.1761","0.1001"
"6.4600","2.2044","0.1044"
"6.8000","2.2329","0.1093"
"7.1400","2.2614","0.1138"
"7.4800","2.2895","0.1181"
"7.8200","2.3178","0.1226"
"8.1600","2.3461","0.1273"
"8.5000","2.3745","0.1317"
"8.8400","2.4029","0.1360"
"9.1800","2.4311","0.1404"
"9.5200","2.4596","0.1447"
"9.8600","2.4879","0.1493"
"10.2000","2.5161","0.1536"
"10.5400","2.5444","0.1580"
"10.8800","2.5729","0.1628"
"11.2200","2.6012","0.1673"
"11.5600","2.6296","0.1718"
"11.9000","2.6578","0.1765"
"12.2400","2.6861","0.1805"
"12.5800","2.7145","0.1852"
"12.9200","2.7429","0.1898"
"13.2600","2.7713","0.1940"
"13.6000","2.7994","0.1985"
"13.9400","2.8278","0.2026"
"14.2800","2.8562","0.2071"
"14.6200","2.8845","0.2112"
"14.9600","2.9128","0.2158"
"15.3000","2.9412","0.2202"
"15.6400","2.9695","0.2246"
"15.9800","2.9979","0.2290"
"16.3200","3.0261","0.2332"
"16.6600","3.0545","0.2376"
"17.0000","3.0830","0.2421"
"17.3400","3.1112","0.2461"
"17.6800","3.1395","0.2506"
"18.0200","3.1677","0.2547"
"18.3600","3.1962","0.2589"
"18.7000","3.2246","0.2631"
"19.0400","3.2528","0.2675"
"19.3800","3.2812","0.2715"
"19.7200","3.3096","0.2762"
"20.0600","3.3378","0.2803"
"20.4000","3.3661","0.2844"
"20.7400","3.3945","0.2886"
"21.0800","3.4229","0.2933"
"21.4200","3.4513","0.2971"
"21.7600","3.4794","0.3017"
"22.1000","3.5079","0.3056"
"22.4400","3.5362","0.3096"
"22.7800","3.5645","0.3140"
"23.1200","3.5929","0.3179"
"23.4600","3.6211","0.3224"
"23.8000","3.6494","0.3260"
"24.1400","3.6779","0.3305"
"24.4800","3.7062","0.3347"
"24.8200","3.7346","0.3387"
"25.1600","3.7629","0.3428"
"25.5000","3.7911","0.3466"
"25.8400","3.8196","0.3507"
"26.1800","3.8478","0.3547"
"26.5200","3.8762","0.3587"
"26.8600","3.9046","0.3627"
"27.2000","3.9329","0.3667"
"27.5400","3.9611","0.3709"
"27.8800","3.9894","0.3748"
"28.2200","4.0178","0.3786"
"28.5600","4.0463","0.3825"
"28.9000","4.0745","0.3872"
"29.2400","4.1028","0.3905"
"29.5800","4.1312","0.3950"
"29.9200","4.1594","0.3988"
"30.2600","4.1878","0.4029"
"30.6000","4.2161","0.4069"
"30.9400","4.2446","0.4109"
"31.2800","4.2729","0.4151"
"31.6200","4.3011","0.4188"
"31.9600","4.3294","0.4229"
"32.3000","4.3578","0.4264"
"32.6400","4.3863","0.4305"
"32.9800","4.4145","0.4343"
"33.3200","4.4427","0.4382"
"33.6600","4.4712","0.4418"
"34.0000","4.4996","0.4454"
"34.3400","4.5278","0.4498"
"34.6800","4.5562","0.4533"
"35.0200","4.5846","0.4573"
"35.3600","4.6128","0.4608"
"35.7000","4.6412","0.4645"
"36.0400","4.6694","0.4684"
"36.3800","4.6979","0.4722"
"36.7200","4.7263","0.4758"
"37.0600","4.7546","0.4801"
"37.4000","4.7828","0.4837"
"37.7400","4.8111","0.4877"
"38.0800","4.8395","0.4914"
"38.4200","4.8679","0.4953"
"38.7600","4.8961","0.4992"
"39.1000","4.9246","0.5033"
"39.4400","4.9528","0.5066"
"39.7800","4.9811","0.5105"
"40.1200","5.0096","0.5143"
"40.4600","5.0378","0.5181"
"40.8000","5.0663","0.5218"
"41.1400","5.0946","0.5256"
"41.4800","5.1228","0.5296"
"41.8200","5.1511","0.5329"
"42.1600","5.1795","0.5370"
"42.5000","5.2079","0.5405"
"42.8400","5.2363","0.5438"
"43.1800","5.2644","0.5478"
"43.5200","5.2928","0.5517"
"43.8600","5.3213","0.5550"
"44.2000","5.3494","0.5586"
"44.5400","5.3778","0.5620"
"44.8800","5.4061","0.5660"
"45.2200","5.4344","0.5696"
"45.5600","5.4629","0.5732"
"45.9000","5.4911","0.5768"
"46.2400","5.5196","0.5804"
"46.5800","5.5479","0.5842"
"46.9200","5.5762","0.5876"
"47.2600","5.6044","0.5913"
"47.6000","5.6328","0.5950"
"47.9400","5.6611","0.5994"
"48.2800","5.6896","0.6024"
"48.6200","5.7178","0.6066"
"48.9600","5.7462","0.6105"
"49.3000","5.7745","0.6141"
"49.6400","5.8028","0.6175"
"49.9800","5.8313","0.6209"
"50.3200","5.8595","0.6250"
"50.6600","5.8879","0.6284"
"51.0000","5.9162","0.6318"
"51.3400","5.9444","0.6357"
"51.6800","5.9728","0.6389"
"52.0200","6.0012","0.6428"
"52.3600","6.0296","0.6462"
"52.7000","6.0579","0.6495"
"53.0400","6.0861","0.6531"
"53.3800","6.1144","0.6569"
"53.7200","6.1429","0.6601"
"54.0600","6.1712","0.6636"
"54.4000","6.1995","0.6671"
"54.7400","6.2277","0.6706"
"55.0800","6.2563","0.6734"
"55.4200","6.2845","0.6773"
"55.7600","6.3128","0.6806"
"56.1000","6.3412","0.6836"
"56.4400","6.3696","0.6873"
"56.7800","6.3979","0.6910"
"57.1200","6.4261","0.6941"
"57.4600","6.4544","0.6973"
"57.8000","6.4829","0.7010"
"58.1400","6.5114","0.7046"
"58.4800","6.5395","0.7078"
"58.8200","6.5679","0.7113"
"59.1600","6.5961","0.7147"
"59.5000","6.6244","0.7183"
"59.8400","6.6529","0.7212"
"60.1800","6.6811","0.7245"
"60.5200","6.7096","0.7280"
"60.8600","6.7379","0.7313"
"61.2000","6.7661","0.7347"
"61.5400","6.7944","0.7380"
"61.8800","6.8229","0.7416"
"62.2200","6.8512","0.7448"
"62.5600","6.8796","0.7483"
"62.9000","6.9078","0.7518"
"63.2400","6.9361","0.7550"
"63.5800","6.9645","0.7580"
"63.9200","6.9929","0.7614"
"64.2600","7.0213","0.7645"
"64.6000","7.0494","0.7679"
"64.9400","7.0778","0.7709"
"65.2800","7.1063","0.7738"
"65.6200","7.1344","0.7776"
"65.9600","7.1628","0.7809"
"66.3000","7.1912","0.7843"
"66.6400","7.2195","0.7874"
"66.9800","7.2478","0.7902"
"67.3200","7.2761","0.7940"
"67.6600","7.3045","0.7974"
"68.0000","7.3330","0.7999"
"68.3400","7.3611","0.8039"
"68.6800","7.3894","0.8072"
"69.0200","7.4177","0.8099"
"69.3600","7.4462","0.8134"
"69.7000","7.4746","0.8169"
"70.0400","7.5028","0.8197"
"70.3800","7.5312","0.8227"
"70.7200","7.5596","0.8265"
"71.0600","7.5878","0.8292"
"71.4000","7.6161","0.8326"
"71.7400","7.6446","0.8356"
"72.0800","7.6729","0.8387"
"72.4200","7.7013","0.8421"
"72.7600","7.7294","0.8454"
"73.1000","7.7579","0.8481"
"73.4400","7.7862","0.8514"
"73.7800","7.8145","0.8546"
"74.1200","7.8429","0.8578"
"74.4600","7.8711","0.8611"
"74.8000","7.8995","0.8642"
"75.1400","7.9279","0.8667"
"75.4800","7.9562","0.8700"
"75.8200","7.9846","0.8732"
"76.1600","8.0129","0.8761"
"76.5000","8.0411","0.8795"
"76.8400","8.0696","0.8827"
"77.1800","8.0977","0.8851"
"77.5200","8.1262","0.8884"
"77.8600","8.1546","0.8915"
"78.2000","8.1829","0.8944"
"78.5400","8.2111","0.8974"
"78.8800","8.2394","0.9010"
"79.2200","8.2679","0.9040"
"79.5600","8.2963","0.9069"
"79.9000","8.3245","0.9101"
"80.2400","8.3529","0.9131"
"80.5800","8.3812","0.9162"
"80.9200","8.4095","0.9191"
"81.2600","8.4378","0.9222"
"81.6000","8.4662","0.9253"
"81.9400","8.4946","0.9283"
"82.2800","8.5229","0.9312"
"82.6200","8.5510","0.9338"
"82.9600","8.5795","0.9372"
"83.3000","8.6078","0.9404"
"83.6400","8.6362","0.9431"
"83.9800","8.6645","0.9405"
"84.3200","8.6928","0.9427"
"84.6600","8.7213","0.9454"
"85.0000","8.7496","0.9484"
"85.3400","8.7778","0.9510"
"85.6800","8.8062","0.9529"
"86.0200","8.8346","0.9558"
"86.3600","8.8628","0.9587"
"86.7000","8.8912","0.9617"
"87.0400","8.9194","0.9552"
"87.3800","8.9479","0.9569"
"87.7200","8.9762","0.9595"
"88.0600","9.0046","0.9617"
"88.4000","9.0328","0.9644"
"88.7400","9.0611","0.9673"
"89.0800","9.0895","0.9700"
"89.4200","9.1179","0.9666"
"89.7600","9.1461","0.9684"
"90.1000","9.1745","0.9711"
"90.4400","9.2029","0.9737"
"90.7800","9.2311","0.9761"
"91.1200","9.2596","0.9791"
"91.4600","9.2878","0.9815"
"91.8000","9.3163","0.9844"
"92.1400","9.3446","0.9796"
"92.4800","9.3728","0.9761"
"92.8200","9.4011","0.9771"
"93.1600","9.4295","0.9794"
"93.5000","9.4579","0.9811"
"93.8400","9.4863","0.9837"
"94.1800","9.5144","0.9859"
"94.5200","9.5428","0.9881"
"94.8600","9.5713","0.9910"
"95.2000","9.5995","0.9936"
"95.5400","9.6279","0.9961"
"95.8800","9.6562","0.9987"
"96.2200","9.6845","1.0008"
"96.5600","9.7129","1.0033"
"96.9000","9.7411","1.0060"
"97.2400","9.7696","1.0052"
"97.5800","9.7979","0.9202"
"97.9200","9.8262","0.9150"
"98.2600","9.8544","0.9134"
"98.6000","9.8828","0.9136"
"98.9400","9.9111","0.9143"
"99.2800","9.9396","0.9154"
"99.6200","9.9678","0.9168"
"99.9600","9.9963","0.9184"
"100.3000","10.0245","0.9203"
"100.6400","10.0528","0.9212"
"100.8440","10.0699","0.9220"