Folder: ts_t/flexural (part 5)

File: ES100_Trevor_Flexural_Data_13_1.csv
Specimen text inputs : Specimen text input  1,,""

Results Table 1
,Specimen text input  1
"13","bh_f1"

Results Table 2

Time,Displacement,Force
(s),(mm),(kN)
"0.0000","0.4887","0.0204"
"0.2000","0.5045","0.0243"
"0.4000","0.5209","0.0272"
"0.6000","0.5374","0.0302"
"0.8000","0.5542","0.0330"
"1.0000","0.5709","0.0360"
"1.2000","0.5874","0.0392"
"1.4000","0.6041","0.0420"
"1.6000","0.6208","0.0457"
"1.8000","0.6376","0.0484"
"2.0000","0.6543","0.0515"
"2.2000","0.6708","0.0549"
"2.4000","0.6875","0.0579"
"2.6000","0.7041","0.0613"
"2.8000","0.7208","0.0645"
"3.0000","0.7376","0.0675"
"3.2000","0.7542","0.0711"
"3.4000","0.7709","0.0743"
"3.6000","0.7875","0.0775"
"3.8000","0.8041","0.0810"
"4.0000","0.8209","0.0839"
"4.2000","0.8374","0.0871"
"4.4000","0.8541","0.0904"
"4.6000","0.8708","0.0938"
"4.8000","0.8875","0.0967"
"5.0000","0.9042","0.1006"
"5.2000","0.9208","0.1034"
"5.4000","0.9374","0.1072"
"5.6000","0.9541","0.1105"
"5.8000","0.9708","0.1138"
"6.0000","0.9876","0.1173"
"6.2000","1.0042","0.1202"
"6.4000","1.0209","0.1236"
"6.6000","1.0375","0.1272"
"6.8000","1.0542","0.1301"
"7.0000","1.0709","0.1330"
"7.2000","1.0874","0.1363"
"7.4000","1.1041","0.1399"
"7.6000","1.1208","0.1433"
"7.8000","1.1376","0.1460"
"8.0000","1.1543","0.1495"
"8.2000","1.1709","0.1526"
"8.4000","1.1875","0.1559"
"8.6000","1.2041","0.1592"
"8.8000","1.2208","0.1627"
"9.0000","1.2376","0.1658"
"9.2000","1.2542","0.1688"
"9.4000","1.2709","0.1727"
"9.6000","1.2874","0.1754"
"9.8000","1.3041","0.1789"
"10.0000","1.3209","0.1819"
"10.2000","1.3374","0.1851"
"10.4000","1.3542","0.1885"
"10.6000","1.3708","0.1918"
"10.8000","1.3876","0.1947"
"11.0000","1.4043","0.1986"
"11.2000","1.4208","0.2017"
"11.4000","1.4375","0.2047"
"11.6000","1.4541","0.2079"
"11.8000","1.4708","0.2111"
"12.0000","1.4876","0.2142"
"12.2000","1.5042","0.2174"
"12.4000","1.5209","0.2202"
"12.6000","1.5374","0.2238"
"12.8000","1.5541","0.2269"
"13.0000","1.5709","0.2299"
"13.2000","1.5874","0.2332"
"13.4000","1.6041","0.2367"
"13.6000","1.6208","0.2398"
"13.8000","1.6375","0.2429"
"14.0000","1.6543","0.2459"
"14.2000","1.6708","0.2490"
"14.4000","1.6875","0.2516"
"14.6000","1.7041","0.2553"
"14.8000","1.7208","0.2580"
"15.0000","1.7376","0.2614"
"15.2000","1.7542","0.2643"
"15.4000","1.7709","0.2673"
"15.6000","1.7875","0.2704"
"15.8000","1.8041","0.2740"
"16.0000","1.8209","0.2770"
"16.2000","1.8374","0.2798"
"16.4000","1.8541","0.2832"
"16.6000","1.8708","0.2866"
"16.8000","1.8876","0.2894"
"17.0000","1.9042","0.2927"
"17.2000","1.9208","0.2958"
"17.4000","1.9374","0.2986"
"17.6000","1.9541","0.3018"
"17.8000","1.9709","0.3045"
"18.0000","1.9876","0.3077"
"18.2000","2.0042","0.3110"
"18.4000","2.0209","0.3137"
"18.6000","2.0375","0.3171"
"18.8000","2.0541","0.3199"
"19.0000","2.0709","0.3228"
"19.2000","2.0874","0.3255"
"19.4000","2.1041","0.3288"
"19.6000","2.1208","0.3315"
"19.8000","2.1376","0.3344"
"20.0000","2.1543","0.3376"
"20.2000","2.1709","0.3406"
"20.4000","2.1874","0.3430"
"20.6000","2.2041","0.3466"
"20.8000","2.2208","0.3491"
"21.0000","2.2376","0.3520"
"21.2000","2.2542","0.3546"
"21.4000","2.2709","0.3575"
"21.6000","2.2875","0.3605"
"21.8000","2.3042","0.3637"
"22.0000","2.3209","0.3663"
"22.2000","2.3374","0.3690"
"22.4000","2.3541","0.3722"
"22.6000","2.3708","0.3751"
"22.8000","2.3875","0.3774"
"23.0000","2.4043","0.3808"
"23.2000","2.4208","0.3835"
"23.4000","2.4375","0.3864"
"23.6000","2.4541","0.3892"
"23.8000","2.4709","0.3917"
"24.0000","2.4876","0.3948"
"24.2000","2.5042","0.3975"
"24.4000","2.5209","0.4004"
"24.6000","2.5374","0.4035"
"24.8000","2.5541","0.4063"
"25.0000","2.5709","0.4090"
"25.2000","2.5874","0.4119"
"25.4000","2.6041","0.4143"
"25.6000","2.6208","0.4173"
"25.8000","2.6376","0.4200"
"26.0000","2.6543","0.4230"
"26.2000","2.6708","0.4258"
"26.4000","2.6875","0.4284"
"26.6000","2.7041","0.4311"
"26.8000","2.7208","0.4338"
"27.0000","2.7376","0.4366"
"27.2000","2.7543","0.4392"
"27.4000","2.7709","0.4418"
"27.6000","2.7875","0.4445"
"27.8000","2.8041","0.4472"
"28.0000","2.8209","0.4499"
"28.2000","2.8374","0.4526"
"28.4000","2.8541","0.4550"
"28.6000","2.8708","0.4582"
"28.8000","2.8875","0.4601"
"29.0000","2.9043","0.4630"
"29.2000","2.9208","0.4656"
"29.4000","2.9374","0.4680"
"29.6000","2.9541","0.4713"
"29.8000","2.9708","0.4731"
"30.0000","2.9876","0.4757"
"30.2000","3.0043","0.4788"
"30.4000","3.0209","0.4812"
"30.6000","3.0375","0.4838"
"30.8000","3.0541","0.4868"
"31.0000","3.0709","0.4892"
"31.2000","3.0874","0.4921"
"31.4000","3.1041","0.4946"
"31.6000","3.1208","0.4976"
"31.8000","3.1376","0.4999"
"32.0000","3.1543","0.5025"
"32.2000","3.1708","0.5054"
"32.4000","3.1874","0.5079"
"32.6000","3.2041","0.5104"
"32.8000","3.2208","0.5133"
"33.0000","3.2376","0.5159"
"33.2000","3.2542","0.5181"
"33.4000","3.2709","0.5206"
"33.6000","3.2875","0.5233"
"33.8000","3.3041","0.5256"
"34.0000","3.3209","0.5285"
"34.2000","3.3374","0.5308"
"34.4000","3.3541","0.5335"
"34.6000","3.3708","0.5360"
"34.8000","3.3876","0.5385"
"35.0000","3.4042","0.5409"
"35.2000","3.4208","0.5436"
"35.4000","3.4374","0.5460"
"35.6000","3.4541","0.5484"
"35.8000","3.4708","0.5508"
"36.0000","3.4875","0.5531"
"36.2000","3.5043","0.5559"
"36.4000","3.5209","0.5583"
"36.6000","3.5375","0.5609"
"36.8000","3.5541","0.5631"
"37.0000","3.5709","0.5654"
"37.2000","3.5875","0.5678"
"37.4000","3.6041","0.5700"
"37.6000","3.6208","0.5726"
"37.8000","3.6376","0.5748"
"38.0000","3.6543","0.5771"
"38.2000","3.6709","0.5795"
"38.4000","3.6875","0.5823"
"38.6000","3.7041","0.5844"
"38.8000","3.7208","0.5871"
"39.0000","3.7376","0.5897"
"39.2000","3.7543","0.5921"
"39.4000","3.7709","0.5944"
"39.6000","3.7874","0.5965"
"39.8000","3.8042","0.5992"
"40.0000","3.8209","0.6016"
"40.2000","3.8374","0.6041"
"40.4000","3.8541","0.6065"
"40.6000","3.8708","0.6087"
"40.8000","3.8876","0.6111"
"41.0000","3.9042","0.6136"
"41.2000","3.9208","0.6160"
"41.4000","3.9375","0.6184"
"41.6000","3.9541","0.6208"
"41.8000","3.9708","0.6232"
"42.0000","3.9876","0.6257"
"42.2000","4.0042","0.6279"
"42.4000","4.0209","0.6303"
"42.6000","4.0375","0.6326"
"42.8000","4.0541","0.6349"
"43.0000","4.0709","0.6370"
"43.2000","4.0874","0.6394"
"43.4000","4.1041","0.6419"
"43.6000","4.1208","0.6440"
"43.8000","4.1376","0.6463"
"44.0000","4.1543","0.6487"
"44.2000","4.1708","0.6511"
"44.4000","4.1874","0.6530"
"44.6000","4.2041","0.6556"
"44.8000","4.2209","0.6576"
"45.0000","4.2376","0.6603"
"45.2000","4.2543","0.6626"
"45.4000","4.2709","0.6653"
"45.6000","4.2874","0.6669"
"45.8000","4.3042","0.6687"
"46.0000","4.3209","0.6715"
"46.2000","4.3374","0.6736"
"46.4000","4.3541","0.6761"
"46.6000","4.3708","0.6782"
"46.8000","4.3876","0.6802"
"47.0000","4.4043","0.6826"
"47.2000","4.4209","0.6848"
"47.4000","4.4375","0.6868"
"47.6000","4.4541","0.6895"
"47.8000","4.4708","0.6917"
"48.0000","4.4876","0.6940"
"48.2000","4.5042","0.6962"
"48.4000","4.5209","0.6986"
"48.6000","4.5375","0.7005"
"48.8000","4.5542","0.7030"
"49.0000","4.5709","0.7055"
"49.2000","4.5874","0.7073"
"49.4000","4.6041","0.7093"
"49.6000","4.6208","0.7119"
"49.8000","4.6375","0.7139"
"50.0000","4.6543","0.7162"
"50.2000","4.6708","0.7182"
"50.4000","4.6874","0.7204"
"50.6000","4.7041","0.7222"
"50.8000","4.7208","0.7247"
"51.0000","4.7376","0.7266"
"51.2000","4.7543","0.7295"
"51.4000","4.7709","0.7312"
"51.6000","4.7875","0.7333"
"51.8000","4.8042","0.7356"
"52.0000","4.8209","0.7378"
"52.2000","4.8375","0.7397"
"52.4000","4.8541","0.7423"
"52.6000","4.8708","0.7445"
"52.8000","4.8876","0.7466"
"53.0000","4.9043","0.7486"
"53.2000","4.9209","0.7509"
"53.4000","4.9374","0.7531"
"53.6000","4.9541","0.7553"
"53.8000","4.9709","0.7573"
"54.0000","4.9876","0.7594"
"54.2000","5.0042","0.7614"
"54.4000","5.0209","0.7635"
"54.6000","5.0374","0.7656"
"54.8000","5.0541","0.7678"
"55.0000","5.0709","0.7698"
"55.2000","5.0874","0.7710"
"55.4000","5.1041","0.7730"
"55.6000","5.1208","0.7696"
"55.8000","5.1376","0.7547"
"56.0000","5.1543","0.7553"
"56.2000","5.1708","0.7566"
"56.4000","5.1875","0.7581"
"56.6000","5.2041","0.7598"
"56.8000","5.2209","0.7619"
"57.0000","5.2376","0.7588"
"57.2000","5.2543","0.7601"
"57.4000","5.2709","0.7617"
"57.6000","5.2875","0.7635"
"57.8000","5.3041","0.7651"
"58.0000","5.3209","0.7670"
"58.2000","5.3374","0.7693"
"58.4000","5.3541","0.7710"
"58.6000","5.3708","0.7732"
"58.8000","5.3876","0.7750"
"58.8100","5.3884","0.7752"

File: ES100_Trevor_Flexural_Data_14_1.csv
Specimen text inputs : Specimen text input  1,,""

Results Table 1
,Specimen text input  1
"14","bh_f2"

Results Table 2

Time,Displacement,Force
(s),(mm),(kN)
"0.0000","0.5840","0.0203"
"0.3400","0.6111","0.0247"
"0.6800","0.6395","0.0290"
"1.0200","0.6678","0.0336"
"1.3600","0.6962","0.0379"
"1.7000","0.7246","0.0424"
"2.0400","0.7528","0.0465"
"2.3800","0.7812","0.0508"
"2.7200","0.8096","0.0553"
"3.0600","0.8377","0.0591"
"3.4000","0.8661","0.0641"
"3.7400","0.8945","0.0682"
"4.0800","0.9229","0.0729"
"4.4200","0.9513","0.0772"
"4.7600","0.9794","0.0820"
"5.1000","1.0079","0.0859"
"5.4400","1.0362","0.0904"
"5.7800","1.0645","0.0951"
"6.1200","1.0929","0.0997"
"6.4600","1.1211","0.1038"
"6.8000","1.1494","0.1083"
"7.1400","1.1779","0.1130"
"7.4800","1.2061","0.1176"
"7.8200","1.2346","0.1212"
"8.1600","1.2629","0.1260"
"8.5000","1.2911","0.1301"
"8.8400","1.3196","0.1340"
"9.1800","1.3478","0.1387"
"9.5200","1.3762","0.1429"
"9.8600","1.4046","0.1471"
"10.2000","1.4329","0.1519"
"10.5400","1.4611","0.1560"
"10.8800","1.4894","0.1601"
"11.2200","1.5178","0.1649"
"11.5600","1.5463","0.1687"
"11.9000","1.5745","0.1732"
"12.2400","1.6028","0.1774"
"12.5800","1.6312","0.1814"
"12.9200","1.6594","0.1857"
"13.2600","1.6878","0.1898"
"13.6000","1.7162","0.1940"
"13.9400","1.7446","0.1982"
"14.2800","1.7729","0.2027"
"14.6200","1.8011","0.2063"
"14.9600","1.8295","0.2108"
"15.3000","1.8578","0.2148"
"15.6400","1.8862","0.2187"
"15.9800","1.9145","0.2230"
"16.3200","1.9428","0.2274"
"16.6600","1.9712","0.2308"
"17.0000","1.9996","0.2353"
"17.3400","2.0278","0.2396"
"17.6800","2.0562","0.2432"
"18.0200","2.0846","0.2473"
"18.3600","2.1128","0.2511"
"18.7000","2.1413","0.2551"
"19.0400","2.1694","0.2591"
"19.3800","2.1979","0.2632"
"19.7200","2.2262","0.2671"
"20.0600","2.2546","0.2712"
"20.4000","2.2829","0.2751"
"20.7400","2.3111","0.2788"
"21.0800","2.3394","0.2829"
"21.4200","2.3679","0.2869"
"21.7600","2.3962","0.2902"
"22.1000","2.4245","0.2944"
"22.4400","2.4528","0.2982"
"22.7800","2.4811","0.3021"
"23.1200","2.5096","0.3061"
"23.4600","2.5378","0.3096"
"23.8000","2.5662","0.3133"
"24.1400","2.5946","0.3169"
"24.4800","2.6228","0.3210"
"24.8200","2.6511","0.3242"
"25.1600","2.6795","0.3283"
"25.5000","2.7079","0.3322"
"25.8400","2.7363","0.3354"
"26.1800","2.7644","0.3392"
"26.5200","2.7928","0.3425"
"26.8600","2.8213","0.3456"
"27.2000","2.8494","0.3493"
"27.5400","2.8779","0.3530"
"27.8800","2.9062","0.3563"
"28.2200","2.9344","0.3599"
"28.5600","2.9629","0.3634"
"28.9000","2.9911","0.3665"
"29.2400","3.0196","0.3702"
"29.5800","3.0479","0.3739"
"29.9200","3.0761","0.3767"
"30.2600","3.1044","0.3805"
"30.6000","3.1328","0.3840"
"30.9400","3.1611","0.3870"
"31.2800","3.1896","0.3905"
"31.6200","3.2178","0.3941"
"31.9600","3.2461","0.3968"
"32.3000","3.2745","0.4010"
"32.6400","3.3028","0.4042"
"32.9800","3.3312","0.4074"
"33.3200","3.3595","0.4103"
"33.6600","3.3879","0.4140"
"34.0000","3.4162","0.4172"
"34.3400","3.4444","0.4203"
"34.6800","3.4728","0.4238"
"35.0200","3.5013","0.4269"
"35.3600","3.5296","0.4297"
"35.7000","3.5579","0.4328"
"36.0400","3.5861","0.4364"
"36.3800","3.6144","0.4392"
"36.7200","3.6429","0.4423"
"37.0600","3.6713","0.4452"
"37.4000","3.6995","0.4483"
"37.7400","3.7278","0.4515"
"38.0800","3.7562","0.4548"
"38.4200","3.7844","0.4575"
"38.7600","3.8127","0.4605"
"39.1000","3.8412","0.4633"
"39.4400","3.8696","0.4666"
"39.7800","3.8979","0.4695"
"40.1200","3.9261","0.4724"
"40.4600","3.9544","0.4756"
"40.8000","3.9829","0.4785"
"41.1400","4.0113","0.4814"
"41.4800","4.0395","0.4844"
"41.8200","4.0678","0.4880"
"42.1600","4.0961","0.4903"
"42.5000","4.1245","0.4938"
"42.8400","4.1529","0.4968"
"43.1800","4.1811","0.4992"
"43.5200","4.2096","0.5027"
"43.8600","4.2378","0.5056"
"44.2000","4.2662","0.5081"
"44.5400","4.2946","0.5114"
"44.8800","4.3229","0.5141"
"45.2200","4.3512","0.5169"
"45.5600","4.3796","0.5198"
"45.9000","4.4077","0.5226"
"46.2400","4.4362","0.5253"
"46.5800","4.4645","0.5286"
"46.9200","4.4929","0.5311"
"47.2600","4.5213","0.5339"
"47.6000","4.5494","0.5367"
"47.9400","4.5778","0.5394"
"48.2800","4.6062","0.5421"
"48.6200","4.6344","0.5449"
"48.9600","4.6628","0.5478"
"49.3000","4.6912","0.5505"
"49.6400","4.7195","0.5532"
"49.9800","4.7479","0.5561"
"50.3200","4.7760","0.5586"
"50.6600","4.8046","0.5612"
"51.0000","4.8331","0.5640"
"51.3400","4.8611","0.5666"
"51.6800","4.8895","0.5691"
"52.0200","4.9178","0.5720"
"52.3600","4.9462","0.5743"
"52.7000","4.9746","0.5775"
"53.0400","5.0028","0.5798"
"53.3800","5.0312","0.5821"
"53.7200","5.0595","0.5850"
"54.0600","5.0878","0.5878"
"54.4000","5.1162","0.5905"
"54.7400","5.1446","0.5929"
"55.0800","5.1729","0.5959"
"55.4200","5.2013","0.5983"
"55.7600","5.2294","0.6012"
"56.1000","5.2579","0.6037"
"56.4400","5.2863","0.6068"
"56.7800","5.3145","0.6090"
"57.1200","5.3428","0.6120"
"57.4600","5.3711","0.6145"
"57.8000","5.3994","0.6174"
"58.1400","5.4278","0.6197"
"58.4800","5.4562","0.6107"
"58.8200","5.4845","0.6123"
"59.1600","5.5129","0.6104"
"59.5000","5.5411","0.6127"
"59.8400","5.5695","0.6151"
"60.1800","5.5978","0.6180"
"60.5200","5.6262","0.6204"
"60.8600","5.6546","0.6229"
"61.2000","5.6829","0.6259"
"61.5400","5.7111","0.6225"
"61.8800","5.7394","0.6212"
"62.2200","5.7678","0.6192"
"62.5600","5.7962","0.6194"
"62.9000","5.8245","0.6214"
"63.2400","5.8529","0.6238"
"63.5800","5.8812","0.6260"
"63.9200","5.9095","0.6286"
"64.2600","5.9378","0.6315"
"64.6000","5.9661","0.6338"
"64.9400","5.9946","0.6364"
"65.2800","6.0229","0.6386"
"65.6200","6.0511","0.6408"
"65.9600","6.0795","0.6390"
"66.3000","6.1078","0.6399"
"66.6400","6.1362","0.6415"
"66.9800","6.1645","0.6437"
"67.3200","6.1928","0.6463"
"67.6600","6.2211","0.6482"
"68.0000","6.2496","0.6508"
"68.3400","6.2778","0.6528"
"68.6800","6.3062","0.6548"
"69.0200","6.3346","0.6572"
"69.3600","6.3627","0.6594"
"69.7000","6.3913","0.6615"
"70.0400","6.4194","0.6640"
"70.3800","6.4479","0.6585"
"70.7200","6.4763","0.6575"
"71.0600","6.5046","0.6513"
"71.4000","6.5329","0.6518"
"71.7400","6.5611","0.6532"
"72.0800","6.5894","0.6551"
"72.4200","6.6179","0.6571"
"72.7600","6.6461","0.6588"
"73.1000","6.6745","0.6611"
"73.4400","6.7028","0.6631"
"73.7800","6.7311","0.6654"
"74.1200","6.7596","0.6673"
"74.4600","6.7877","0.6689"
"74.8000","6.8163","0.6711"
"75.1400","6.8446","0.6732"
"75.4800","6.8728","0.6752"
"75.8200","6.9011","0.6772"
"76.1600","6.9295","0.6791"
"76.5000","6.9579","0.6812"
"76.8400","6.9863","0.6833"
"77.1800","7.0144","0.6751"
"77.5200","7.0428","0.6762"
"77.8600","7.0712","0.6774"
"78.2000","7.0995","0.6797"
"78.5400","7.1279","0.6819"
"78.8800","7.1561","0.6747"
"79.2200","7.1844","0.6764"
"79.5600","7.2129","0.6783"
"79.9000","7.2411","0.6798"
"80.2400","7.2696","0.6815"
"80.5800","7.2979","0.6837"
"80.9200","7.3262","0.6854"
"81.2600","7.3544","0.6828"
"81.6000","7.3828","0.6768"
"81.9400","7.4111","0.6771"
"82.2800","7.4396","0.6787"
"82.6200","7.4678","0.6804"
"82.9600","7.4962","0.6815"
"83.3000","7.5245","0.6838"
"83.6400","7.5528","0.6853"
"83.9800","7.5812","0.6875"
"84.3200","7.6095","0.6891"
"84.6600","7.6379","0.6909"
"85.0000","7.6661","0.6926"
"85.3400","7.6945","0.6948"
"85.6800","7.7228","0.6964"
"86.0200","7.7512","0.6982"
"86.3600","7.7796","0.7001"
"86.7000","7.8079","0.7016"
"87.0400","7.8361","0.7030"
"87.3800","7.8644","0.7051"
"87.7200","7.8929","0.7064"
"88.0600","7.9211","0.7082"
"88.4000","7.9496","0.7096"
"88.7400","7.9778","0.7113"
"89.0800","8.0062","0.7118"
"89.4200","8.0345","0.7131"
"89.7600","8.0627","0.7144"
"90.1000","8.0912","0.7164"
"90.4400","8.1196","0.7163"
"90.7800","8.1479","0.7151"
"91.1200","8.1761","0.7165"
"91.4600","8.2044","0.7179"
"91.8000","8.2329","0.7193"
"92.1400","8.2614","0.7179"
"92.4800","8.2895","0.7186"
"92.8200","8.3179","0.7198"
"93.1600","8.3462","0.7165"
"93.5000","8.3744","0.7180"
"93.8400","8.4029","0.7177"
"94.1800","8.4311","0.7186"
"94.5200","8.4596","0.7194"
"94.8600","8.4879","0.7193"
"95.2000","8.5161","0.7197"
"95.5400","8.5444","0.7196"
"95.8800","8.5729","0.7188"
"96.2200","8.6012","0.7189"
"96.5600","8.6296","0.7190"
"96.9000","8.6577","0.7187"
"97.2400","8.6861","0.7172"
"97.5800","8.7146","0.7119"
"97.9200","8.7429","0.7069"
"98.2600","8.7712","0.6920"
"98.4300","8.7855","0.4070"

File: ES100_Trevor_Flexural_Data_15_1.csv
Specimen text inputs : Specimen text input  1,,""

Results Table 1
,Specimen text input  1
"15","bf_f1"

Results Table 2

Time,Displacement,Force
(s),(mm),(kN)
"0.0000","0.5640","0.0203"
"0.3600","0.5929","0.0269"
"0.7200","0.6228","0.0324"
"1.0800","0.6529","0.0383"
"1.4400","0.6828","0.0445"
"1.8000","0.7129","0.0502"
"2.1600","0.7429","0.0564"
"2.5200","0.7729","0.0628"
"2.8800","0.8027","0.0688"
"3.2400","0.8329","0.0750"
"3.6000","0.8628","0.0815"
"3.9600","0.8929","0.0878"
"4.3200","0.9228","0.0943"
"4.6800","0.9529","0.1006"
"5.0400","0.9829","0.1073"
"5.4000","1.0129","0.1136"
"5.7600","1.0428","0.1198"
"6.1200","1.0729","0.1264"
"6.4800","1.1028","0.1327"
"6.8400","1.1328","0.1391"
"7.2000","1.1628","0.1455"
"7.5600","1.1928","0.1523"
"7.9200","1.2228","0.1584"
"8.2800","1.2528","0.1649"
"8.6400","1.2828","0.1714"
"9.0000","1.3128","0.1777"
"9.3600","1.3429","0.1846"
"9.7200","1.3727","0.1913"
"10.0800","1.4029","0.1973"
"10.4400","1.4328","0.2041"
"10.8000","1.4629","0.2108"
"11.1600","1.4929","0.2173"
"11.5200","1.5230","0.2237"
"11.8800","1.5527","0.2301"
"12.2400","1.5829","0.2363"
"12.6000","1.6127","0.2429"
"12.9600","1.6429","0.2496"
"13.3200","1.6729","0.2560"
"13.6800","1.7028","0.2626"
"14.0400","1.7329","0.2690"
"14.4000","1.7629","0.2758"
"14.7600","1.7928","0.2823"
"15.1200","1.8229","0.2891"
"15.4800","1.8528","0.2956"
"15.8400","1.8828","0.3021"
"16.2000","1.9128","0.3086"
"16.5600","1.9428","0.3150"
"16.9200","1.9729","0.3215"
"17.2800","2.0028","0.3280"
"17.6400","2.0329","0.3341"
"18.0000","2.0628","0.3404"
"18.3600","2.0929","0.3472"
"18.7200","2.1228","0.3531"
"19.0800","2.1529","0.3596"
"19.4400","2.1828","0.3657"
"19.8000","2.2129","0.3719"
"20.1600","2.2429","0.3785"
"20.5200","2.2729","0.3845"
"20.8800","2.3028","0.3906"
"21.2400","2.3330","0.3972"
"21.6000","2.3628","0.4032"
"21.9600","2.3929","0.4096"
"22.3200","2.4229","0.4161"
"22.6800","2.4528","0.4222"
"23.0400","2.4829","0.4287"
"23.4000","2.5129","0.4346"
"23.7600","2.5428","0.4403"
"24.1200","2.5729","0.4468"
"24.4800","2.6028","0.4526"
"24.8400","2.6328","0.4587"
"25.2000","2.6628","0.4646"
"25.5600","2.6928","0.4710"
"25.9200","2.7227","0.4766"
"26.2800","2.7529","0.4829"
"26.6400","2.7828","0.4887"
"27.0000","2.8128","0.4951"
"27.3600","2.8429","0.5012"
"27.7200","2.8728","0.5072"
"28.0800","2.9029","0.5133"
"28.4400","2.9329","0.5193"
"28.8000","2.9629","0.5253"
"29.1600","2.9929","0.5312"
"29.5200","3.0229","0.5372"
"29.8800","3.0527","0.5429"
"30.2400","3.0830","0.5485"
"30.6000","3.1128","0.5543"
"30.9600","3.1429","0.5601"
"31.3200","3.1729","0.5656"
"31.6800","3.2028","0.5718"
"32.0400","3.2329","0.5770"
"32.4000","3.2629","0.5831"
"32.7600","3.2928","0.5885"
"33.1200","3.3229","0.5941"
"33.4800","3.3528","0.6000"
"33.8400","3.3828","0.6058"
"34.2000","3.4128","0.6116"
"34.5600","3.4427","0.6175"
"34.9200","3.4728","0.6232"
"35.2800","3.5028","0.6288"
"35.6400","3.5328","0.6342"
"36.0000","3.5628","0.6399"
"36.3600","3.5929","0.6456"
"36.7200","3.6227","0.6510"
"37.0800","3.6528","0.6563"
"37.4400","3.6829","0.6620"
"37.8000","3.7129","0.6673"
"38.1600","3.7429","0.6729"
"38.5200","3.7729","0.6784"
"38.8800","3.8028","0.6835"
"39.2400","3.8329","0.6892"
"39.6000","3.8628","0.6946"
"39.9600","3.8929","0.7004"
"40.3200","3.9228","0.7056"
"40.6800","3.9528","0.7114"
"41.0400","3.9829","0.7165"
"41.4000","4.0129","0.7219"
"41.7600","4.0428","0.7275"
"42.1200","4.0729","0.7324"
"42.4800","4.1028","0.7381"
"42.8400","4.1328","0.7435"
"43.2000","4.1628","0.7487"
"43.5600","4.1927","0.7538"
"43.9200","4.2228","0.7593"
"44.2800","4.2529","0.7646"
"44.6400","4.2828","0.7695"
"45.0000","4.3128","0.7747"
"45.3600","4.3429","0.7800"
"45.7200","4.3728","0.7851"
"46.0800","4.4029","0.7904"
"46.4400","4.4329","0.7958"
"46.8000","4.4629","0.8009"
"47.1600","4.4929","0.8064"
"47.5200","4.5229","0.8114"
"47.8800","4.5528","0.8167"
"48.2400","4.5829","0.8221"
"48.6000","4.6128","0.8271"
"48.9600","4.6428","0.8323"
"49.3200","4.6729","0.8377"
"49.6800","4.7029","0.8429"
"50.0400","4.7329","0.8480"
"50.4000","4.7629","0.8532"
"50.7600","4.7928","0.8585"
"51.1200","4.8229","0.8635"
"51.4800","4.8528","0.8691"
"51.8400","4.8828","0.8740"
"52.2000","4.9128","0.8791"
"52.5600","4.9427","0.8845"
"52.9200","4.9729","0.8897"
"53.2800","5.0028","0.8946"
"53.6400","5.0328","0.8996"
"54.0000","5.0628","0.9046"
"54.3600","5.0929","0.9102"
"54.7200","5.1228","0.9158"
"55.0800","5.1529","0.9210"
"55.4400","5.1828","0.9260"
"55.8000","5.2129","0.9314"
"56.1600","5.2429","0.9363"
"56.5200","5.2729","0.9415"
"56.8800","5.3028","0.9471"
"57.2400","5.3330","0.9515"
"57.6000","5.3628","0.9571"
"57.9600","5.3929","0.9623"
"58.3200","5.4229","0.9675"
"58.6800","5.4529","0.9723"
"59.0400","5.4829","0.9770"
"59.4000","5.5129","0.9821"
"59.7600","5.5428","0.9757"
"60.1200","5.5729","0.9797"
"60.4800","5.6028","0.9848"
"60.8400","5.6328","0.9900"
"61.2000","5.6627","0.9947"
"61.5600","5.6928","0.9999"
"61.9200","5.7229","1.0050"
"62.2800","5.7528","1.0099"
"62.6400","5.7828","1.0150"
"63.0000","5.8128","1.0199"
"63.3600","5.8428","1.0245"
"63.7200","5.8728","1.0140"
"64.0800","5.9029","1.0127"
"64.4400","5.9328","1.0135"
"64.8000","5.9629","1.0172"
"65.1600","5.9929","1.0215"
"65.5200","6.0229","1.0257"
"65.8800","6.0527","1.0306"
"66.2400","6.0830","1.0349"
"66.6000","6.1128","1.0399"
"66.9600","6.1429","1.0441"
"67.3200","6.1729","1.0335"
"67.6800","6.2029","1.0150"
"68.0400","6.2329","1.0172"
"68.4000","6.2629","1.0210"
"68.7600","6.2928","1.0251"
"69.1200","6.3229","1.0292"
"69.4800","6.3529","1.0342"
"69.8400","6.3828","1.0386"
"70.2000","6.4129","1.0432"
"70.5600","6.4428","1.0475"
"70.9200","6.4728","1.0522"
"71.2800","6.5028","1.0565"
"71.6400","6.5329","1.0614"
"72.0000","6.5628","1.0654"
"72.3600","6.5929","1.0697"
"72.7200","6.6228","1.0738"
"73.0800","6.6529","1.0757"
"73.4400","6.6829","1.0784"
"73.8000","6.7129","1.0823"
"74.1600","6.7429","1.0861"
"74.5200","6.7729","1.0858"
"74.8800","6.8028","1.0877"
"75.2400","6.8329","1.0911"
"75.6000","6.8628","1.0942"
"75.9600","6.8929","1.0981"
"76.3200","6.9229","1.1015"
"76.6800","6.9528","1.1055"
"77.0400","6.9829","1.1009"
"77.4000","7.0129","1.1044"
"77.7600","7.0428","1.1078"
"78.1200","7.0729","1.1115"
"78.4800","7.1028","1.1154"
"78.8400","7.1328","1.1193"
"79.2000","7.1628","1.1227"
"79.5600","7.1927","1.1235"
"79.9200","7.2228","1.1252"
"80.2800","7.2528","1.1277"
"80.6400","7.2828","1.1308"
"81.0000","7.3127","1.1338"
"81.3600","7.3428","1.1240"
"81.7200","7.3728","1.1149"
"82.0800","7.4028","1.1150"
"82.4400","7.4328","1.1169"
"82.8000","7.4629","1.1190"
"83.1600","7.4929","1.1220"
"83.5200","7.5229","1.1246"
"83.8800","7.5528","1.1276"
"84.2400","7.5829","1.1306"
"84.6000","7.6128","1.1337"
"84.9600","7.6429","1.1370"
"85.3200","7.6729","1.1403"
"85.6800","7.7028","1.1436"
"86.0400","7.7329","1.1455"
"86.4000","7.7629","1.1486"
"86.7600","7.7928","1.1518"
"87.1200","7.8229","1.1451"
"87.4800","7.8528","1.1427"
"87.8400","7.8828","1.1382"
"88.2000","7.9128","1.1308"
"88.5600","7.9427","1.1299"
"88.9200","7.9728","1.1282"
"89.2800","8.0029","1.1238"
"89.6400","8.0328","1.1227"
"90.0000","8.0627","1.1216"
"90.3600","8.0929","1.1212"
"90.7200","8.1228","1.1186"
"91.0800","8.1529","1.1191"
"91.4400","8.1829","1.1206"
"91.8000","8.2129","1.1222"
"92.1600","8.2429","1.1243"
"92.5200","8.2729","1.1262"
"92.8800","8.3027","1.1275"
"93.2400","8.3330","1.1298"
"93.6000","8.3628","1.1323"
"93.9600","8.3929","1.1350"
"94.3200","8.4229","1.1380"
"94.6800","8.4529","1.1360"
"95.0400","8.4829","1.1364"
"95.4000","8.5129","1.1376"
"95.7600","8.5428","1.1279"
"96.1200","8.5729","1.1234"
"96.4800","8.6028","1.1219"
"96.8400","8.6328","1.1219"
"97.2000","8.6629","1.1221"
"97.5600","8.6928","1.1239"
"97.9200","8.7229","1.1248"
"98.2800","8.7528","1.1266"
"98.6400","8.7828","1.1283"
"99.0000","8.8128","1.1298"
"99.3600","8.8429","1.1229"
"99.7200","8.8727","1.1221"
"100.0800","8.9029","1.1226"
"100.4400","8.9329","1.1240"
"100.8000","8.9629","1.1246"
"101.1600","8.9929","1.1253"
"101.5200","9.0229","1.1198"
"101.8800","9.0528","1.1091"
"102.2400","9.0829","1.1036"
"102.6000","9.1128","1.1004"
"102.9600","9.1428","1.0987"
"103.3200","9.1729","1.0974"
"103.6800","9.2029","1.0972"
"104.0400","9.2329","1.0975"
"104.4000","9.2629","1.0977"
"104.7600","9.2928","1.0912"
"105.1200","9.3229","1.0881"
"105.4800","9.3528","1.0858"
"105.8400","9.3828","1.0821"
"106.2000","9.4128","1.0655"
"106.4660","9.4352","0.6049"