Folder: ts_t/flexural (part 4)

File: ES100_Trevor_Flexural_Data_10_1.csv
Specimen text inputs : Specimen text input  1,,""

Results Table 1
,Specimen text input  1
"10","h0_f2"

Results Table 2

Time,Displacement,Force
(s),(mm),(kN)
"0.0000","0.4313","0.0202"
"0.2600","0.4520","0.0224"
"0.5200","0.4735","0.0247"
"0.7800","0.4953","0.0266"
"1.0400","0.5168","0.0291"
"1.3000","0.5384","0.0307"
"1.5600","0.5602","0.0328"
"1.8200","0.5819","0.0349"
"2.0800","0.6034","0.0367"
"2.3400","0.6251","0.0391"
"2.6000","0.6468","0.0410"
"2.8600","0.6684","0.0429"
"3.1200","0.6903","0.0451"
"3.3800","0.7119","0.0472"
"3.6400","0.7336","0.0492"
"3.9000","0.7552","0.0511"
"4.1600","0.7768","0.0530"
"4.4200","0.7985","0.0555"
"4.6800","0.8203","0.0572"
"4.9400","0.8418","0.0588"
"5.2000","0.8634","0.0612"
"5.4600","0.8851","0.0633"
"5.7200","0.9067","0.0659"
"5.9800","0.9285","0.0671"
"6.2400","0.9503","0.0696"
"6.5000","0.9718","0.0716"
"6.7600","0.9936","0.0738"
"7.0200","1.0151","0.0760"
"7.2800","1.0369","0.0780"
"7.5400","1.0586","0.0795"
"7.8000","1.0802","0.0813"
"8.0600","1.1018","0.0838"
"8.3200","1.1234","0.0858"
"8.5800","1.1452","0.0878"
"8.8400","1.1668","0.0898"
"9.1000","1.1886","0.0914"
"9.3600","1.2102","0.0938"
"9.6200","1.2318","0.0955"
"9.8800","1.2535","0.0978"
"10.1400","1.2751","0.0998"
"10.4000","1.2969","0.1017"
"10.6600","1.3186","0.1036"
"10.9200","1.3401","0.1054"
"11.1800","1.3618","0.1076"
"11.4400","1.3834","0.1094"
"11.7000","1.4053","0.1114"
"11.9600","1.4268","0.1131"
"12.2200","1.4485","0.1153"
"12.4800","1.4702","0.1168"
"12.7400","1.4918","0.1187"
"13.0000","1.5135","0.1210"
"13.2600","1.5352","0.1225"
"13.5200","1.5569","0.1242"
"13.7800","1.5785","0.1262"
"14.0400","1.6001","0.1281"
"14.3000","1.6217","0.1297"
"14.5600","1.6435","0.1312"
"14.8200","1.6653","0.1332"
"15.0800","1.6867","0.1347"
"15.3400","1.7086","0.1366"
"15.6000","1.7301","0.1389"
"15.8600","1.7519","0.1404"
"16.1200","1.7736","0.1419"
"16.3800","1.7952","0.1435"
"16.6400","1.8169","0.1451"
"16.9000","1.8384","0.1472"
"17.1600","1.8601","0.1488"
"17.4200","1.8818","0.1503"
"17.6800","1.9036","0.1520"
"17.9400","1.9251","0.1536"
"18.2000","1.9469","0.1555"
"18.4600","1.9685","0.1569"
"18.7200","1.9901","0.1585"
"18.9800","2.0120","0.1606"
"19.2400","2.0335","0.1625"
"19.5000","2.0552","0.1637"
"19.7600","2.0768","0.1656"
"20.0200","2.0984","0.1670"
"20.2800","2.1202","0.1687"
"20.5400","2.1419","0.1700"
"20.8000","2.1635","0.1716"
"21.0600","2.1851","0.1734"
"21.3200","2.2069","0.1749"
"21.5800","2.2284","0.1763"
"21.8400","2.2503","0.1780"
"22.1000","2.2719","0.1793"
"22.3600","2.2935","0.1806"
"22.6200","2.3152","0.1823"
"22.8800","2.3368","0.1840"
"23.1400","2.3585","0.1856"
"23.4000","2.3803","0.1870"
"23.6600","2.4018","0.1884"
"23.9200","2.4235","0.1900"
"24.1800","2.4451","0.1915"
"24.4400","2.4668","0.1924"
"24.7000","2.4885","0.1942"
"24.9600","2.5104","0.1957"
"25.2200","2.5319","0.1969"
"25.4800","2.5534","0.1982"
"25.7400","2.5751","0.2002"
"26.0000","2.5968","0.2009"
"26.2600","2.6186","0.2022"
"26.5200","2.6402","0.2040"
"26.7800","2.6618","0.2056"
"27.0400","2.6835","0.2064"
"27.3000","2.7051","0.2083"
"27.5600","2.7268","0.2094"
"27.8200","2.7486","0.2106"
"28.0800","2.7702","0.2121"
"28.3400","2.7918","0.2130"
"28.6000","2.8135","0.2145"
"28.8600","2.8351","0.2164"
"29.1200","2.8569","0.2174"
"29.3800","2.8786","0.2185"
"29.6400","2.9001","0.2197"
"29.9000","2.9219","0.2213"
"30.1600","2.9434","0.2225"
"30.4200","2.9652","0.2236"
"30.6800","2.9869","0.2249"
"30.9400","3.0086","0.2261"
"31.2000","3.0302","0.2270"
"31.4600","3.0517","0.2285"
"31.7200","3.0735","0.2298"
"31.9800","3.0953","0.2310"
"32.2400","3.1168","0.2322"
"32.5000","3.1386","0.2335"
"32.7600","3.1601","0.2350"
"33.0200","3.1819","0.2358"
"33.2800","3.2034","0.2370"
"33.5400","3.2253","0.2382"
"33.8000","3.2468","0.2393"
"34.0600","3.2686","0.2406"
"34.3200","3.2901","0.2417"
"34.5800","3.3117","0.2428"
"34.8400","3.3336","0.2439"
"35.1000","3.3552","0.2449"
"35.3600","3.3769","0.2461"
"35.6200","3.3984","0.2475"
"35.8800","3.4201","0.2482"
"36.1400","3.4418","0.2495"
"36.4000","3.4636","0.2505"
"36.6600","3.4852","0.2516"
"36.9200","3.5069","0.2524"
"37.1800","3.5285","0.2535"
"37.4400","3.5501","0.2546"
"37.7000","3.5719","0.2558"
"37.9600","3.5936","0.2562"
"38.2200","3.6151","0.2576"
"38.4800","3.6369","0.2587"
"38.7400","3.6584","0.2597"
"39.0000","3.6802","0.2608"
"39.2600","3.7019","0.2615"
"39.5200","3.7235","0.2626"
"39.7800","3.7452","0.2636"
"40.0400","3.7668","0.2648"
"40.3000","3.7884","0.2655"
"40.5600","3.8102","0.2664"
"40.8200","3.8319","0.2674"
"41.0800","3.8534","0.2679"
"41.3400","3.8751","0.2695"
"41.6000","3.8969","0.2708"
"41.8600","3.9184","0.2709"
"42.1200","3.9402","0.2721"
"42.3800","3.9618","0.2730"
"42.6400","3.9836","0.2739"
"42.9000","4.0052","0.2748"
"43.1600","4.0268","0.2754"
"43.4200","4.0485","0.2765"
"43.6800","4.0703","0.2772"
"43.9400","4.0919","0.2779"
"44.2000","4.1134","0.2786"
"44.4600","4.1352","0.2802"
"44.7200","4.1567","0.2814"
"44.9800","4.1785","0.2818"
"45.2400","4.2003","0.2832"
"45.5000","4.2219","0.2836"
"45.7600","4.2436","0.2844"
"46.0200","4.2651","0.2858"
"46.2800","4.2868","0.2863"
"46.5400","4.3086","0.2873"
"46.8000","4.3301","0.2881"
"47.0600","4.3519","0.2893"
"47.3200","4.3734","0.2900"
"47.5800","4.3951","0.2910"
"47.8400","4.4168","0.2919"
"48.1000","4.4386","0.2926"
"48.3600","4.4602","0.2934"
"48.6200","4.4818","0.2942"
"48.8800","4.5035","0.2948"
"49.1400","4.5251","0.2958"
"49.4000","4.5469","0.2966"
"49.6600","4.5686","0.2974"
"49.9200","4.5901","0.2982"
"50.1800","4.6119","0.2989"
"50.4400","4.6334","0.2998"
"50.7000","4.6553","0.3007"
"50.9600","4.6768","0.3014"
"51.2200","4.6986","0.3018"
"51.4800","4.7201","0.3029"
"51.7400","4.7418","0.3033"
"52.0000","4.7635","0.3043"
"52.2600","4.7852","0.3048"
"52.5200","4.8069","0.3057"
"52.7800","4.8285","0.3059"
"53.0400","4.8502","0.3070"
"53.3000","4.8718","0.3080"
"53.5600","4.8935","0.3083"
"53.8200","4.9152","0.3087"
"54.0800","4.9368","0.3098"
"54.3400","4.9586","0.3102"
"54.6000","4.9801","0.3109"
"54.8600","5.0019","0.3119"
"55.1200","5.0236","0.3130"
"55.3800","5.0452","0.3133"
"55.6400","5.0669","0.3142"
"55.9000","5.0884","0.3149"
"56.1600","5.1102","0.3155"
"56.4200","5.1318","0.3163"
"56.6800","5.1536","0.3169"
"56.9400","5.1751","0.3176"
"57.2000","5.1969","0.3181"
"57.4600","5.2185","0.3188"
"57.7200","5.2401","0.3196"
"57.9800","5.2619","0.3202"
"58.2400","5.2835","0.3209"
"58.5000","5.3052","0.3215"
"58.7600","5.3269","0.3219"
"59.0200","5.3484","0.3226"
"59.2800","5.3702","0.3227"
"59.5400","5.3918","0.3238"
"59.8000","5.4135","0.3238"
"60.0600","5.4351","0.3248"
"60.3200","5.4569","0.3252"
"60.5800","5.4784","0.3259"
"60.8400","5.5003","0.3262"
"61.1000","5.5220","0.3266"
"61.3600","5.5435","0.3273"
"61.6200","5.5653","0.3265"
"61.8800","5.5868","0.3273"
"62.1400","5.6085","0.3279"
"62.4000","5.6302","0.3284"
"62.6600","5.6518","0.3288"
"62.9200","5.6735","0.3293"
"63.1800","5.6952","0.3295"
"63.4400","5.7168","0.3298"
"63.7000","5.7385","0.3304"
"63.9600","5.7603","0.3305"
"64.2200","5.7818","0.3313"
"64.4800","5.8034","0.3321"
"64.7400","5.8252","0.3329"
"65.0000","5.8467","0.3330"
"65.2600","5.8686","0.3333"
"65.5200","5.8901","0.3343"
"65.7800","5.9119","0.3345"
"66.0400","5.9334","0.3348"
"66.3000","5.9551","0.3355"
"66.5600","5.9769","0.3358"
"66.8200","5.9986","0.3367"
"67.0800","6.0202","0.3360"
"67.3400","6.0418","0.3362"
"67.6000","6.0634","0.3363"
"67.8600","6.0852","0.3363"
"68.1200","6.1068","0.3357"
"68.3800","6.1286","0.3351"
"68.6400","6.1501","0.3261"
"68.9000","6.1719","0.1510"
"69.1600","6.1934","0.1440"
"69.4200","6.2152","0.1413"
"69.6800","6.2369","0.1394"
"69.9400","6.2586","0.1379"
"70.2000","6.2803","0.1369"
"70.4600","6.3018","0.1355"
"70.7200","6.3235","0.1341"
"70.9800","6.3452","0.1340"
"71.2400","6.3668","0.1338"
"71.5000","6.3885","0.1332"
"71.7600","6.4101","0.1332"
"72.0200","6.4318","0.1316"
"72.0320","6.4329","0.1317"

File: ES100_Trevor_Flexural_Data_11_1.csv
Specimen text inputs : Specimen text input  1,,""

Results Table 1
,Specimen text input  1
"11","h45_f1"

Results Table 2

Time,Displacement,Force
(s),(mm),(kN)
"0.0000","0.8652","0.0202"
"0.3400","0.8926","0.0227"
"0.6800","0.9208","0.0253"
"1.0200","0.9492","0.0276"
"1.3600","0.9775","0.0299"
"1.7000","1.0058","0.0322"
"2.0400","1.0343","0.0346"
"2.3800","1.0624","0.0367"
"2.7200","1.0909","0.0394"
"3.0600","1.1193","0.0419"
"3.4000","1.1475","0.0440"
"3.7400","1.1758","0.0463"
"4.0800","1.2041","0.0489"
"4.4200","1.2325","0.0514"
"4.7600","1.2611","0.0538"
"5.1000","1.2891","0.0560"
"5.4400","1.3176","0.0579"
"5.7800","1.3459","0.0605"
"6.1200","1.3741","0.0627"
"6.4600","1.4026","0.0653"
"6.8000","1.4308","0.0678"
"7.1400","1.4592","0.0701"
"7.4800","1.4876","0.0726"
"7.8200","1.5158","0.0751"
"8.1600","1.5441","0.0772"
"8.5000","1.5726","0.0799"
"8.8400","1.6007","0.0820"
"9.1800","1.6293","0.0842"
"9.5200","1.6574","0.0863"
"9.8600","1.6858","0.0892"
"10.2000","1.7143","0.0914"
"10.5400","1.7426","0.0937"
"10.8800","1.7709","0.0956"
"11.2200","1.7991","0.0980"
"11.5600","1.8274","0.1006"
"11.9000","1.8559","0.1026"
"12.2400","1.8841","0.1057"
"12.5800","1.9125","0.1075"
"12.9200","1.9409","0.1097"
"13.2600","1.9692","0.1119"
"13.6000","1.9975","0.1142"
"13.9400","2.0257","0.1165"
"14.2800","2.0541","0.1186"
"14.6200","2.0827","0.1205"
"14.9600","2.1108","0.1232"
"15.3000","2.1392","0.1250"
"15.6400","2.1674","0.1268"
"15.9800","2.1958","0.1295"
"16.3200","2.2243","0.1314"
"16.6600","2.2525","0.1334"
"17.0000","2.2809","0.1354"
"17.3400","2.3093","0.1375"
"17.6800","2.3374","0.1398"
"18.0200","2.3658","0.1417"
"18.3600","2.3942","0.1437"
"18.7000","2.4226","0.1457"
"19.0400","2.4509","0.1476"
"19.3800","2.4791","0.1498"
"19.7200","2.5076","0.1516"
"20.0600","2.5359","0.1534"
"20.4000","2.5642","0.1559"
"20.7400","2.5925","0.1573"
"21.0800","2.6208","0.1599"
"21.4200","2.6492","0.1616"
"21.7600","2.6775","0.1633"
"22.1000","2.7058","0.1656"
"22.4400","2.7342","0.1673"
"22.7800","2.7626","0.1690"
"23.1200","2.7908","0.1712"
"23.4600","2.8192","0.1726"
"23.8000","2.8474","0.1745"
"24.1400","2.8758","0.1764"
"24.4800","2.9043","0.1788"
"24.8200","2.9325","0.1800"
"25.1600","2.9609","0.1817"
"25.5000","2.9891","0.1837"
"25.8400","3.0175","0.1856"
"26.1800","3.0459","0.1869"
"26.5200","3.0741","0.1885"
"26.8600","3.1025","0.1904"
"27.2000","3.1309","0.1924"
"27.5400","3.1591","0.1940"
"27.8800","3.1874","0.1955"
"28.2200","3.2159","0.1972"
"28.5600","3.2443","0.1989"
"28.9000","3.2726","0.2003"
"29.2400","3.3007","0.2019"
"29.5800","3.3292","0.2039"
"29.9200","3.3575","0.2055"
"30.2600","3.3858","0.2070"
"30.6000","3.4142","0.2085"
"30.9400","3.4424","0.2100"
"31.2800","3.4708","0.2115"
"31.6200","3.4993","0.2129"
"31.9600","3.5274","0.2147"
"32.3000","3.5559","0.2162"
"32.6400","3.5842","0.2178"
"32.9800","3.6124","0.2191"
"33.3200","3.6409","0.2198"
"33.6600","3.6691","0.2212"
"34.0000","3.6975","0.2230"
"34.3400","3.7259","0.2241"
"34.6800","3.7543","0.2245"
"35.0200","3.7824","0.2259"
"35.3600","3.8108","0.2277"
"35.7000","3.8391","0.2285"
"36.0400","3.8676","0.2302"
"36.3800","3.8958","0.2313"
"36.7200","3.9241","0.2332"
"37.0600","3.9526","0.2340"
"37.4000","3.9808","0.2354"
"37.7400","4.0092","0.2371"
"38.0800","4.0375","0.2382"
"38.4200","4.0659","0.2394"
"38.7600","4.0943","0.2407"
"39.1000","4.1224","0.2421"
"39.4400","4.1508","0.2434"
"39.7800","4.1792","0.2442"
"40.1200","4.2076","0.2451"
"40.4600","4.2359","0.2460"
"40.8000","4.2641","0.2470"
"41.1400","4.2925","0.2478"
"41.4800","4.3209","0.2492"
"41.8200","4.3491","0.2504"
"42.1600","4.3776","0.2513"
"42.5000","4.4058","0.2526"
"42.8400","4.4342","0.2537"
"43.1800","4.4625","0.2544"
"43.5200","4.4907","0.2552"
"43.8600","4.5193","0.2567"
"44.2000","4.5476","0.2578"
"44.5400","4.5759","0.2585"
"44.8800","4.6041","0.2597"
"45.2200","4.6324","0.2599"
"45.5600","4.6608","0.2608"
"45.9000","4.6892","0.2619"
"46.2400","4.7174","0.2628"
"46.5800","4.7459","0.2639"
"46.9200","4.7742","0.2647"
"47.2600","4.8024","0.2661"
"47.6000","4.8309","0.2668"
"47.9400","4.8591","0.2680"
"48.2800","4.8876","0.2693"
"48.6200","4.9159","0.2701"
"48.9600","4.9441","0.2710"
"49.3000","4.9725","0.2719"
"49.6400","5.0009","0.2730"
"49.9800","5.0293","0.2738"
"50.3200","5.0576","0.2743"
"50.6600","5.0858","0.2757"
"51.0000","5.1141","0.2761"
"51.3400","5.1426","0.2774"
"51.6800","5.1708","0.2782"
"52.0200","5.1993","0.2788"
"52.3600","5.2274","0.2801"
"52.7000","5.2559","0.2810"
"53.0400","5.2842","0.2813"
"53.3800","5.3124","0.2825"
"53.7200","5.3408","0.2832"
"54.0600","5.3692","0.2838"
"54.4000","5.3975","0.2846"
"54.7400","5.4258","0.2855"
"55.0800","5.4541","0.2865"
"55.4200","5.4826","0.2871"
"55.7600","5.5110","0.2880"
"56.1000","5.5391","0.2889"
"56.4400","5.5676","0.2899"
"56.7800","5.5959","0.2909"
"57.1200","5.6241","0.2917"
"57.4600","5.6526","0.2918"
"57.8000","5.6808","0.2929"
"58.1400","5.7092","0.2943"
"58.4800","5.7376","0.2946"
"58.8200","5.7657","0.2952"
"59.1600","5.7941","0.2960"
"59.5000","5.8226","0.2967"
"59.8400","5.8509","0.2976"
"60.1800","5.8793","0.2985"
"60.5200","5.9074","0.2994"
"60.8600","5.9358","0.3005"
"61.2000","5.9642","0.3008"
"61.5400","5.9926","0.3018"
"61.8800","6.0209","0.3023"
"62.2200","6.0491","0.3034"
"62.5600","6.0775","0.3039"
"62.9000","6.1059","0.3045"
"63.2400","6.1341","0.3056"
"63.5800","6.1624","0.3062"
"63.9200","6.1909","0.3067"
"64.2600","6.2192","0.3073"
"64.6000","6.2475","0.3077"
"64.9400","6.2758","0.3081"
"65.2800","6.3041","0.3087"
"65.6200","6.3326","0.3091"
"65.9600","6.3608","0.3098"
"66.3000","6.3892","0.3104"
"66.6400","6.4174","0.3106"
"66.9800","6.4458","0.3116"
"67.3200","6.4742","0.3118"
"67.6600","6.5025","0.3131"
"68.0000","6.5309","0.3137"
"68.3400","6.5592","0.3142"
"68.6800","6.5874","0.3146"
"69.0200","6.6157","0.3151"
"69.3600","6.6441","0.3156"
"69.7000","6.6725","0.3165"
"70.0400","6.7009","0.3169"
"70.3800","6.7291","0.3174"
"70.7200","6.7576","0.3179"
"71.0600","6.7859","0.3183"
"71.4000","6.8143","0.3193"
"71.7400","6.8426","0.3196"
"72.0800","6.8708","0.3202"
"72.4200","6.8991","0.3210"
"72.7600","6.9276","0.3210"
"73.1000","6.9558","0.3222"
"73.4400","6.9842","0.3225"
"73.7800","7.0126","0.3226"
"74.1200","7.0408","0.3229"
"74.4600","7.0692","0.3233"
"74.8000","7.0974","0.3238"
"75.1400","7.1258","0.3246"
"75.4800","7.1543","0.3251"
"75.8200","7.1824","0.3257"
"76.1600","7.2108","0.3265"
"76.5000","7.2391","0.3271"
"76.8400","7.2675","0.3273"
"77.1800","7.2959","0.3279"
"77.5200","7.3241","0.3280"
"77.8600","7.3525","0.3288"
"78.2000","7.3809","0.3295"
"78.5400","7.4091","0.3297"
"78.8800","7.4374","0.3298"
"79.2200","7.4658","0.3302"
"79.5600","7.4943","0.3308"
"79.9000","7.5226","0.3314"
"80.2400","7.5507","0.3317"
"80.5800","7.5791","0.3318"
"80.9200","7.6076","0.3321"
"81.2600","7.6359","0.3328"
"81.6000","7.6642","0.3332"
"81.9400","7.6924","0.3338"
"82.2800","7.7209","0.3340"
"82.6200","7.7492","0.3343"
"82.9600","7.7775","0.3345"
"83.3000","7.8058","0.3348"
"83.6400","7.8342","0.3356"
"83.9800","7.8625","0.3355"
"84.3200","7.8908","0.3359"
"84.6600","7.9191","0.3365"
"85.0000","7.9476","0.3369"
"85.3400","7.9759","0.3372"
"85.6800","8.0042","0.3375"
"86.0200","8.0324","0.3374"
"86.3600","8.0608","0.3383"
"86.7000","8.0891","0.3380"
"87.0400","8.1175","0.3387"
"87.3800","8.1458","0.3386"
"87.7200","8.1742","0.3392"
"88.0600","8.2025","0.3395"
"88.4000","8.2308","0.3404"
"88.7400","8.2592","0.3402"
"89.0800","8.2875","0.3407"
"89.4200","8.3159","0.3405"
"89.7600","8.3443","0.3411"
"90.1000","8.3724","0.3415"
"90.4400","8.4008","0.3415"
"90.7800","8.4292","0.3418"
"91.1200","8.4576","0.3422"
"91.4600","8.4859","0.3424"
"91.8000","8.5141","0.3429"
"92.1400","8.5425","0.3425"
"92.4800","8.5709","0.3431"
"92.8200","8.5991","0.3435"
"93.1600","8.6276","0.3434"
"93.5000","8.6558","0.3436"
"93.8400","8.6842","0.3438"
"94.1800","8.7126","0.3439"
"94.5200","8.7408","0.3436"
"94.8600","8.7693","0.3435"
"95.2000","8.7976","0.3431"
"95.5400","8.8259","0.3433"
"95.8800","8.8541","0.3433"
"96.2200","8.8824","0.3428"
"96.5600","8.9108","0.3419"
"96.9000","8.9392","0.3405"
"97.2400","8.9675","0.3373"
"97.5800","8.9959","0.3350"
"97.9200","9.0242","0.3297"
"98.2600","9.0524","0.3255"
"98.6000","9.0809","0.3188"
"98.9400","9.1092","0.0107"
"99.2800","9.1376","0.0110"
"99.6200","9.1659","0.0111"
"99.9600","9.1941","0.0120"
"100.3000","9.2225","0.0117"
"100.6400","9.2509","0.0117"
"100.9800","9.2792","0.0118"
"101.3200","9.3076","0.0117"
"101.3660","9.3113","0.0124"

File: ES100_Trevor_Flexural_Data_12_1.csv
Specimen text inputs : Specimen text input  1,,""

Results Table 1
,Specimen text input  1
"12","h45_f2"

Results Table 2

Time,Displacement,Force
(s),(mm),(kN)
"0.0000","0.7654","0.0202"
"0.3600","0.7941","0.0228"
"0.7200","0.8241","0.0251"
"1.0800","0.8541","0.0275"
"1.4400","0.8841","0.0296"
"1.8000","0.9142","0.0322"
"2.1600","0.9441","0.0344"
"2.5200","0.9742","0.0370"
"2.8800","1.0042","0.0395"
"3.2400","1.0343","0.0420"
"3.6000","1.0641","0.0444"
"3.9600","1.0942","0.0468"
"4.3200","1.1241","0.0489"
"4.6800","1.1543","0.0517"
"5.0400","1.1842","0.0536"
"5.4000","1.2143","0.0561"
"5.7600","1.2442","0.0589"
"6.1200","1.2742","0.0618"
"6.4800","1.3041","0.0641"
"6.8400","1.3343","0.0663"
"7.2000","1.3641","0.0689"
"7.5600","1.3942","0.0715"
"7.9200","1.4242","0.0737"
"8.2800","1.4541","0.0765"
"8.6400","1.4843","0.0786"
"9.0000","1.5141","0.0816"
"9.3600","1.5441","0.0836"
"9.7200","1.5741","0.0859"
"10.0800","1.6041","0.0887"
"10.4400","1.6341","0.0910"
"10.8000","1.6642","0.0933"
"11.1600","1.6941","0.0957"
"11.5200","1.7243","0.0982"
"11.8800","1.7542","0.1006"
"12.2400","1.7842","0.1029"
"12.6000","1.8142","0.1057"
"12.9600","1.8442","0.1076"
"13.3200","1.8741","0.1103"
"13.6800","1.9042","0.1129"
"14.0400","1.9341","0.1149"
"14.4000","1.9642","0.1173"
"14.7600","1.9943","0.1198"
"15.1200","2.0241","0.1219"
"15.4800","2.0541","0.1244"
"15.8400","2.0843","0.1266"
"16.2000","2.1141","0.1287"
"16.5600","2.1442","0.1306"
"16.9200","2.1741","0.1334"
"17.2800","2.2041","0.1356"
"17.6400","2.2342","0.1377"
"18.0000","2.2641","0.1399"
"18.3600","2.2942","0.1420"
"18.7200","2.3241","0.1442"
"19.0800","2.3541","0.1460"
"19.4400","2.3841","0.1486"
"19.8000","2.4142","0.1504"
"20.1600","2.4441","0.1527"
"20.5200","2.4742","0.1549"
"20.8800","2.5042","0.1570"
"21.2400","2.5343","0.1591"
"21.6000","2.5642","0.1611"
"21.9600","2.5942","0.1632"
"22.3200","2.6241","0.1650"
"22.6800","2.6543","0.1673"
"23.0400","2.6841","0.1695"
"23.4000","2.7142","0.1716"
"23.7600","2.7443","0.1730"
"24.1200","2.7742","0.1756"
"24.4800","2.8041","0.1773"
"24.8400","2.8343","0.1794"
"25.2000","2.8641","0.1812"
"25.5600","2.8942","0.1830"
"25.9200","2.9242","0.1854"
"26.2800","2.9541","0.1871"
"26.6400","2.9842","0.1895"
"27.0000","3.0141","0.1911"
"27.3600","3.0441","0.1927"
"27.7200","3.0741","0.1945"
"28.0800","3.1041","0.1965"
"28.4400","3.1341","0.1986"
"28.8000","3.1642","0.2003"
"29.1600","3.1941","0.2019"
"29.5200","3.2243","0.2039"
"29.8800","3.2542","0.2056"
"30.2400","3.2843","0.2069"
"30.6000","3.3142","0.2091"
"30.9600","3.3443","0.2104"
"31.3200","3.3741","0.2125"
"31.6800","3.4042","0.2144"
"32.0400","3.4341","0.2155"
"32.4000","3.4642","0.2174"
"32.7600","3.4943","0.2189"
"33.1200","3.5243","0.2209"
"33.4800","3.5541","0.2223"
"33.8400","3.5843","0.2238"
"34.2000","3.6141","0.2255"
"34.5600","3.6442","0.2265"
"34.9200","3.6742","0.2283"
"35.2800","3.7041","0.2299"
"35.6400","3.7342","0.2319"
"36.0000","3.7641","0.2333"
"36.3600","3.7941","0.2345"
"36.7200","3.8241","0.2361"
"37.0800","3.8541","0.2374"
"37.4400","3.8842","0.2388"
"37.8000","3.9142","0.2401"
"38.1600","3.9441","0.2419"
"38.5200","3.9743","0.2432"
"38.8800","4.0042","0.2447"
"39.2400","4.0343","0.2463"
"39.6000","4.0642","0.2477"
"39.9600","4.0942","0.2489"
"40.3200","4.1241","0.2501"
"40.6800","4.1543","0.2515"
"41.0400","4.1841","0.2525"
"41.4000","4.2142","0.2538"
"41.7600","4.2443","0.2557"
"42.1200","4.2742","0.2567"
"42.4800","4.3042","0.2581"
"42.8400","4.3342","0.2590"
"43.2000","4.3641","0.2605"
"43.5600","4.3941","0.2617"
"43.9200","4.4242","0.2633"
"44.2800","4.4541","0.2640"
"44.6400","4.4842","0.2652"
"45.0000","4.5141","0.2667"
"45.3600","4.5441","0.2677"
"45.7200","4.5742","0.2691"
"46.0800","4.6041","0.2701"
"46.4400","4.6340","0.2714"
"46.8000","4.6642","0.2727"
"47.1600","4.6941","0.2738"
"47.5200","4.7243","0.2750"
"47.8800","4.7543","0.2761"
"48.2400","4.7842","0.2775"
"48.6000","4.8142","0.2784"
"48.9600","4.8443","0.2798"
"49.3200","4.8741","0.2807"
"49.6800","4.9042","0.2817"
"50.0400","4.9342","0.2829"
"50.4000","4.9642","0.2840"
"50.7600","4.9943","0.2846"
"51.1200","5.0242","0.2858"
"51.4800","5.0541","0.2870"
"51.8400","5.0842","0.2877"
"52.2000","5.1141","0.2888"
"52.5600","5.1442","0.2896"
"52.9200","5.1741","0.2905"
"53.2800","5.2041","0.2918"
"53.6400","5.2343","0.2922"
"54.0000","5.2641","0.2934"
"54.3600","5.2941","0.2940"
"54.7200","5.3242","0.2952"
"55.0800","5.3541","0.2963"
"55.4400","5.3841","0.2973"
"55.8000","5.4142","0.2978"
"56.1600","5.4441","0.2989"
"56.5200","5.4743","0.3000"
"56.8800","5.5043","0.3010"
"57.2400","5.5342","0.3017"
"57.6000","5.5642","0.3025"
"57.9600","5.5943","0.3033"
"58.3200","5.6241","0.3045"
"58.6800","5.6543","0.3055"
"59.0400","5.6842","0.3061"
"59.4000","5.7143","0.3074"
"59.7600","5.7443","0.3083"
"60.1200","5.7742","0.3092"
"60.4800","5.8042","0.3101"
"60.8400","5.8342","0.3111"
"61.2000","5.8641","0.3116"
"61.5600","5.8941","0.3126"
"61.9200","5.9242","0.3135"
"62.2800","5.9541","0.3143"
"62.6400","5.9842","0.3157"
"63.0000","6.0141","0.3165"
"63.3600","6.0441","0.3169"
"63.7200","6.0741","0.3178"
"64.0800","6.1041","0.3183"
"64.4400","6.1341","0.3191"
"64.8000","6.1642","0.3204"
"65.1600","6.1941","0.3212"
"65.5200","6.2242","0.3219"
"65.8800","6.2543","0.3219"
"66.2400","6.2842","0.3230"
"66.6000","6.3142","0.3237"
"66.9600","6.3443","0.3243"
"67.3200","6.3741","0.3256"
"67.6800","6.4043","0.3258"
"68.0400","6.4341","0.3261"
"68.4000","6.4642","0.3272"
"68.7600","6.4943","0.3273"
"69.1200","6.5242","0.3280"
"69.4800","6.5541","0.3288"
"69.8400","6.5843","0.3289"
"70.2000","6.6141","0.3292"
"70.5600","6.6442","0.3297"
"70.9200","6.6742","0.3307"
"71.2800","6.7041","0.3315"
"71.6400","6.7342","0.3322"
"72.0000","6.7641","0.3328"
"72.3600","6.7941","0.3331"
"72.7200","6.8242","0.3337"
"73.0800","6.8541","0.3342"
"73.4400","6.8841","0.3346"
"73.8000","6.9142","0.3355"
"74.1600","6.9441","0.3360"
"74.5200","6.9742","0.3364"
"74.8800","7.0043","0.3372"
"75.2400","7.0342","0.3377"
"75.6000","7.0642","0.3384"
"75.9600","7.0943","0.3388"
"76.3200","7.1241","0.3397"
"76.6800","7.1543","0.3404"
"77.0400","7.1841","0.3404"
"77.4000","7.2142","0.3413"
"77.7600","7.2443","0.3415"
"78.1200","7.2742","0.3422"
"78.4800","7.3042","0.3432"
"78.8400","7.3342","0.3433"
"79.2000","7.3641","0.3437"
"79.5600","7.3942","0.3447"
"79.9200","7.4241","0.3450"
"80.2800","7.4541","0.3458"
"80.6400","7.4843","0.3463"
"81.0000","7.5141","0.3467"
"81.3600","7.5441","0.3472"
"81.7200","7.5741","0.3480"
"82.0800","7.6041","0.3483"
"82.4400","7.6341","0.3489"
"82.8000","7.6642","0.3493"
"83.1600","7.6941","0.3493"
"83.5200","7.7243","0.3493"
"83.8800","7.7543","0.3497"
"84.2400","7.7843","0.3503"
"84.6000","7.8141","0.3509"
"84.9600","7.8443","0.3510"
"85.3200","7.8741","0.3515"
"85.6800","7.9043","0.3522"
"86.0400","7.9342","0.3523"
"86.4000","7.9642","0.3535"
"86.7600","7.9943","0.3540"
"87.1200","8.0242","0.3543"
"87.4800","8.0542","0.3545"
"87.8400","8.0843","0.3550"
"88.2000","8.1141","0.3551"
"88.5600","8.1442","0.3559"
"88.9200","8.1742","0.3562"
"89.2800","8.2041","0.3563"
"89.6400","8.2342","0.3568"
"90.0000","8.2641","0.3573"
"90.3600","8.2941","0.3577"
"90.7200","8.3242","0.3581"
"91.0800","8.3541","0.3585"
"91.4400","8.3841","0.3588"
"91.8000","8.4142","0.3592"
"92.1600","8.4441","0.3595"
"92.5200","8.4742","0.3600"
"92.8800","8.5042","0.3603"
"93.2400","8.5343","0.3603"
"93.6000","8.5642","0.3609"
"93.9600","8.5943","0.3610"
"94.3200","8.6241","0.3615"
"94.6800","8.6543","0.3614"
"95.0400","8.6841","0.3618"
"95.4000","8.7143","0.3618"
"95.7600","8.7442","0.3619"
"96.1200","8.7742","0.3619"
"96.4800","8.8042","0.3620"
"96.8400","8.8342","0.3615"
"97.2000","8.8641","0.3611"
"97.5600","8.8942","0.3616"
"97.9200","8.9242","0.3612"
"98.2800","8.9541","0.3604"
"98.6400","8.9843","0.3600"
"99.0000","9.0141","0.3596"
"99.3600","9.0441","0.3588"
"99.7200","9.0741","0.3584"
"100.0800","9.1041","0.3518"
"100.4400","9.1341","0.0015"
"100.8000","9.1642","0.0014"
"101.1600","9.1941","0.0019"
"101.5200","9.2242","0.0018"
"101.8800","9.2543","0.0020"
"102.2400","9.2842","0.0019"
"102.6000","9.3142","0.0023"
"102.9600","9.3442","0.0021"
"103.3200","9.3741","0.0025"
"103.6800","9.4043","0.0025"
"104.0400","9.4342","0.0024"
"104.4000","9.4642","0.0026"
"104.4800","9.4708","0.0022"